UTC	Pack_count	IMUTemp	q0	q1	q2	q3	Roll	Pitch	Yaw	RollRate	PitchRate	YawRate	AccX	AccY	AccZ	RealAccX	RealAccY	RealAccZ	PosX	PosY	PosZ	Long	Lat	Height	VelX	VelY	VelZ	RSSI	SNR
14:45:11:42	26771	30.2031	0.36328	0.41968	-0.60986	-0.56543	-112.5711	1.805155	0.002662659	-0.0076675	0.0094528	0.0026627	-0.0012074	-0.0038395	0.0022888	-0.30127	9.7422	-0.9458	0	0	0	24.78577	120.9975	154.6066	-0.08630371	0.04974365	154.6066	-50	6.5
14:45:11:65	26772	30.2031	0.36353	0.41968	-0.60986	-0.56543	-112.5556	1.787763	0.001283646	-0.0086746	0.0097427	0.0012836	-0.031738	0.01474	0.0015583	-0.30713	9.7422	-0.9082	0	0	0	24.78577	120.9975	154.6006	-0.08483887	0.05041504	154.6006	-50	6.25
14:45:11:87	26773	30.2031	0.36353	0.41968	-0.60986	-0.56543	-112.5556	1.787763	0.003063202	-0.0063667	0.0086212	0.0030632	0.0020275	0.0069923	-0.0035019	-0.3125	9.7344	-0.94141	0	0	0	24.78577	120.9975	154.5987	-0.08435059	0.05102539	154.5987	-50	6
14:45:12:10	26774	30.2031	0.36353	0.41968	-0.60986	-0.56543	-112.5556	1.787763	0.003883362	-0.0074997	0.0087585	0.0038834	-0.011208	-0.0084229	-0.0022736	-0.29321	9.7344	-0.93506	0	0	0	24.78577	120.9975	154.5952	-0.08306885	0.05221558	154.5952	-50	6.25
14:45:12:32	26775	30.2188	0.36353	0.41968	-0.60986	-0.56543	-112.5556	1.787763	0.005241394	0.0023346	0.0069275	0.0052414	-0.012016	0.010475	0.017944	-0.31128	9.7578	-0.92969	0	0	0	24.78577	120.9975	154.6265	-0.08374023	0.052948	154.6265	-50	6.5
14:45:12:55	26776	30.2188	0.36353	0.41968	-0.60986	-0.56543	-112.5556	1.787763	0.002891541	-0.0088959	0.009697	0.0028915	0.011559	-0.010902	0.00053692	-0.29956	9.7344	-0.95703	0	0	0	24.78577	120.9975	154.6237	-0.08233643	0.05505371	154.6237	-51	6.25
14:45:12:77	26777	30.2188	0.36353	0.41968	-0.60986	-0.56543	-112.5556	1.787763	0.001859665	-0.0069084	0.0088348	0.0018597	-0.0026321	0.014915	-0.051208	-0.31714	9.6875	-0.92725	0	0	0	24.78578	120.9975	154.628	-0.08099365	0.05664063	154.628	-51	6.5
14:45:13:00	26778	30.2188	0.36353	0.41968	-0.60986	-0.56543	-112.5556	1.787763	0.003509521	-0.0048637	0.0070648	0.0035095	0.0026283	0.0013342	0.037659	-0.30859	9.7734	-0.94824	0	0	0	24.78578	120.9975	154.6178	-0.08105469	0.05859375	154.6178	-51	6
14:45:13:22	26779	30.2188	0.36353	0.41968	-0.60986	-0.56543	-112.5556	1.787763	0.001371384	-0.0059166	0.0069008	0.0013714	-0.0015917	-0.0058022	0.0059586	-0.2998	9.7422	-0.94482	0	0	0	24.78578	120.9975	154.6242	-0.07971191	0.05953979	154.6242	-51	6.5
14:45:13:44	26780	30.2188	0.36353	0.41968	-0.60986	-0.56543	-112.5556	1.787763	0.002542496	-0.010162	0.01107	0.0025425	-0.0037689	-0.0012627	-0.0037766	-0.30273	9.7344	-0.93896	0	0	0	24.78578	120.9975	154.6145	-0.0802002	0.06311035	154.6145	-51	6.5
14:45:13:67	26781	30.2188	0.36353	0.41968	-0.60986	-0.56543	-112.5556	1.787763	0.002737045	-0.0077591	0.010178	0.002737	0.0056763	0.0032101	-0.00042152	-0.3103	9.7344	-0.9458	0	0	0	24.78578	120.9975	154.6017	-0.07983398	0.06488037	154.6017	-50	6.5
14:45:13:90	26782	30.2188	0.36353	0.41968	-0.60986	-0.56543	-112.5556	1.787763	0.003343582	-0.0070419	0.0090714	0.0033436	0.0038471	-0.0013151	-0.0038376	-0.30591	9.7344	-0.94482	0	0	0	24.78578	120.9975	154.5906	-0.07324219	0.06225586	154.5906	-50	6.5
14:45:14:12	26783	30.2188	0.36353	0.41968	-0.60986	-0.56543	-112.5556	1.787763	0.003131866	-0.0072212	0.0095749	0.0031319	0.0010691	0.0015764	9.35E-05	-0.30762	9.7422	-0.94092	0	0	0	24.78578	120.9975	154.5951	-0.07312012	0.06396484	154.5951	-50	6.25
13:09:22:21	556	26.6094	0.81104	-0.00080538	0.00082254	0.58447	71.5568	0.130466	-0.00500107	-0.00013447	0.0080566	-0.0050011	-0.0038223	0.0016394	0.0030842	-0.021973	0.00079823	9.7891	0	0	0	24.78623	120.9975	145.2184	-0.02420044	0.02857971	145.2184	-24	7
13:09:22:55	557	26.6094	0.81152	-0.00082541	0.00085163	0.58447	71.5241	0.134454	-0.00703812	-0.00089312	0.008934	-0.0070381	-0.0025082	0.0013533	0.0018148	-0.022614	-0.00061655	9.7891	0	0	0	24.78623	120.9975	145.2071	-0.02244568	0.02789307	145.2071	-24	6.5
13:09:22:89	558	26.6094	0.81152	-0.0008111	0.00082445	0.58398	71.4787	0.130999	-0.00380325	0.00022471	0.0068932	-0.0038033	-0.0066452	0.00076056	0.0242	-0.023743	0.0031338	9.8125	0	0	0	24.78623	120.9975	145.2391	-0.02342224	0.027771	145.2391	-24	6.5
13:09:23:23	559	26.625	0.81201	-0.00080442	0.00086164	0.58398	71.446	0.133954	-0.00408173	-0.00036621	0.0060539	-0.0040817	0.0065956	-0.0026035	-0.01062	-0.023071	-0.01001	9.7813	0	0	0	24.78623	120.9975	145.2482	-0.02250671	0.02711487	145.2482	-24	7
13:09:23:57	560	26.625	0.81201	-0.00078249	0.0008769	0.5835	71.4006	0.133938	-0.00819397	-0.00021362	0.0097275	-0.008194	0.014465	-0.009552	-0.012642	-0.027481	-0.019165	9.7734	0	0	0	24.78623	120.9975	145.2201	-0.02003479	0.02574158	145.2201	-24	6.5
13:09:23:90	561	26.625	0.8125	-0.00077581	0.00088358	0.58301	71.3225	0.134089	-0.00257301	-0.00017798	0.0052986	-0.002573	0.014565	-0.011017	-0.0087967	-0.028427	-0.019547	9.7813	0	0	0	24.78623	120.9975	145.2239	-0.01873779	0.02503967	145.2239	-23	6.5
13:09:24:24	562	26.625	0.8125	-0.00081253	0.00092077	0.58301	71.3225	0.140005	-0.00400925	-0.0003407	0.006424	-0.0040092	-0.0036259	0.00069761	0.0023403	-0.024307	0.0012407	9.7891	0	0	0	24.78623	120.9975	145.2345	-0.01670837	0.02513123	145.2345	-23	6.75
13:09:24:58	563	26.625	0.8125	-0.00080681	0.00093794	0.58252	71.277	0.141256	-0.00774384	-0.0012779	0.0093155	-0.0077438	-0.0076485	0.013046	0.022888	-0.014435	0.009201	9.8125	0	0	0	24.78623	120.9975	145.2126	-0.01311493	0.02656555	145.2126	-23	6.75
13:09:24:92	564	26.625	0.81299	-0.00081873	0.00097132	0.58252	71.2444	0.145101	-0.00622559	-0.0011158	0.0089417	-0.0062256	-0.006279	0.0098724	0.025787	-0.017654	0.0070877	9.8125	0	0	0	24.78623	120.9975	145.2293	-0.009140015	0.02690125	145.2293	-23	7.25
13:09:25:26	565	26.6094	0.81299	-0.00080347	0.00098228	0.58203	71.1989	0.145141	-0.00458145	0.00030422	0.0083923	-0.0045815	-0.0045586	0.0085373	0.027115	-0.018326	0.0055389	9.8125	0	0	0	24.78623	120.9975	145.2382	-0.006698608	0.02755737	145.2382	-23	6.5
13:09:25:59	566	26.6094	0.81348	-0.00079679	0.00098038	0.58154	71.1209	0.144496	-0.00761032	-0.00043488	0.009552	-0.0076103	-0.00012183	0.015244	0.012276	-0.010506	0.0035076	9.8047	0	0	0	24.78623	120.9975	145.2116	-0.006072998	0.02734375	145.2116	-23	7
13:09:25:93	567	26.6094	0.81348	-0.00080013	0.00097847	0.58154	71.1209	0.14454	-0.00886536	-0.00017834	0.010223	-0.0088654	0.014824	-0.0028648	-0.0089569	-0.022827	-0.016541	9.7813	0	0	0	24.78623	120.9975	145.2083	-0.004516602	0.02709961	145.2083	-23	6.5
13:09:26:27	568	26.6094	0.81396	-0.00078487	0.00096512	0.58105	71.0428	0.142257	-0.00114918	0.00043464	0.0047874	-0.0011492	0.019791	-0.010101	-0.018936	-0.0271	-0.023438	9.7734	0	0	0	24.78623	120.9975	145.1651	-0.00466156	0.02682495	145.1651	-23	6.75
13:09:26:61	569	26.6094	0.81396	-0.0007844	0.00096512	0.58057	70.9973	0.142262	-0.00625992	-0.0010481	0.0079041	-0.0062599	0.023209	0.00081158	-0.02037	-0.015961	-0.02327	9.7656	0	0	0	24.78623	120.9975	145.1666	-0.003574371	0.0274353	145.1666	-23	6
13:09:26:94	570	26.6094	0.81445	-0.00081968	0.00098419	0.58057	70.9648	0.146329	-0.00671768	-0.00088453	0.008873	-0.0067177	0.0043144	0.003355	0.017685	-0.020584	-0.004921	9.8047	0	0	0	24.78623	120.9975	145.1809	-0.001253128	0.02746582	145.1809	-24	6.75
13:09:27:28	571	26.625	0.81445	-0.00083351	0.00097847	0.58008	70.9192	0.146751	-0.00133133	-0.00021279	0.0051308	-0.0013313	-0.0050888	0.015656	0.023239	-0.011757	0.0077629	9.8125	0	0	0	24.78623	120.9975	145.1498	-0.000883102	0.02714539	145.1498	-24	6.75
13:09:27:62	572	26.625	0.81494	-0.00084543	0.00099277	0.57959	70.8412	0.148853	-0.0072937	-0.00095034	0.0098495	-0.0072937	-0.0027275	0.0053062	0.013084	-0.021561	0.0020409	9.8047	0	0	0	24.78623	120.9975	145.153	-6.14E-06	0.02818298	145.153	-23	6.5
13:09:27:96	573	26.625	0.81494	-0.0008359	0.00097752	0.57959	70.8412	0.146795	-0.00802612	-0.00066042	0.0090256	-0.0080261	0.017197	-0.0076218	-0.015457	-0.026718	-0.021011	9.7734	0	0	0	24.78623	120.9975	145.1591	0.002662659	0.02806091	145.1591	-23	6.5
13:09:28:30	574	26.625	0.81494	-0.00079346	0.00095415	0.5791	70.7956	0.14183	-0.0063324	-5.32E-05	0.0076485	-0.0063324	0.01944	-0.0065155	-0.013	-0.023941	-0.022308	9.7734	0	0	0	24.78623	120.9975	145.1358	0.003574371	0.02864075	145.1358	-24	6.75
13:09:28:64	575	26.625	0.81543	-0.00081825	0.00096083	0.5791	70.7632	0.144039	-0.00441742	-0.00088263	0.0072632	-0.0044174	-0.0025291	-0.0058899	-0.0040932	-0.03096	-0.0017767	9.7813	0	0	0	24.78623	120.9975	145.1455	0.005626678	0.02903748	145.1455	-23	7
13:09:28:98	576	26.625	0.81543	-0.00080681	0.00093365	0.57861	70.7175	0.140776	-0.00364876	-0.00070333	0.0071297	-0.0036488	-0.010399	0.0019894	0.016006	-0.025589	0.0081329	9.8047	0	0	0	24.78623	120.9975	145.1785	0.005447388	0.02961731	145.1785	-22	7
13:09:29:31	577	26.625	0.81592	-0.00077868	0.00092936	0.57813	70.6395	0.138485	-0.00125408	0.00055027	0.005146	-0.0012541	-0.0060768	0.00092649	0.017868	-0.024582	0.0042152	9.8047	0	0	0	24.78623	120.9975	145.1485	0.006771088	0.02915955	145.1485	-23	7
13:09:29:65	578	26.625	0.81592	-0.00080156	0.00093651	0.57813	70.6395	0.14067	-0.00553513	-0.0017986	0.0084229	-0.0055351	0.0023136	0.0062408	0.0072327	-0.017471	-0.0024624	9.7969	0	0	0	24.78623	120.9975	145.1519	0.006961823	0.02896118	145.1519	-25	6
13:09:29:99	579	26.625	0.81641	-0.00081778	0.0009551	0.57764	70.5615	0.143457	-0.0030632	-0.00065136	0.0073586	-0.0030632	-0.0058632	0.0042076	0.016785	-0.022491	0.0046349	9.8047	0	0	0	24.78623	120.9975	145.1605	0.00932312	0.02941895	145.1605	-25	6.25
13:09:30:33	580	26.625	0.81738	-0.0024681	0.0002439	0.57617	70.3596	0.185783	-0.0887451	0.0071373	0.013657	-0.088745	0.60303	-0.12634	0.039032	0.051941	-0.64648	9.8281	0	0	0	24.78623	120.9975	145.1386	0.03973389	0.0244751	145.1386	-24	6.5
13:09:30:66	581	26.625	0.82324	-0.0041466	-0.0013685	0.56738	69.149	0.140544	-0.0919189	-0.018921	0.024948	-0.091919	0.87354	-0.57471	-0.10632	-0.25073	-1.1035	9.6719	0	0	0	24.78623	120.9975	145.1634	0.2548828	-0.06274414	145.1634	-28	6.5
13:09:31:00	582	26.625	0.83301	-0.0019484	-0.0015316	0.55322	67.1784	-0.0226854	-0.266113	0.053833	-0.033844	-0.26611	0.8501	1.4277	0.40479	1.65527	-0.270508	10.1875	0	0	0	24.78623	120.9975	145.1417	0.5151367	-0.1588135	145.1417	-31	6.25
13:09:31:34	583	26.6094	0.80225	0.0025749	0.0034046	0.59668	73.2815	0.136979	-0.0111694	0.086975	0.048218	-0.011169	-0.82715	0.62793	-0.21521	0.33667	1.0596	9.5625	0	0	0	24.78623	120.9975	145.1461	0.3613281	-0.06915283	145.1461	-30	6.25
13:09:31:68	584	26.6094	0.80176	0.00047755	0.0031033	0.59814	73.4495	0.252227	-0.0119476	-0.010124	-8.08E-05	-0.011948	-0.13208	-0.065857	0.097046	-0.14343	0.15112	9.8828	0	0	0	24.78623	120.9975	145.1427	-0.01242828	0.04525757	145.1427	-29	6.5
13:09:32:01	585	26.6094	0.79883	0.00088024	0.003191	0.60156	73.9642	0.231419	0.0366821	-0.0024948	0.0086594	0.036682	-0.1051	0.12347	0.010895	0.049988	0.1864	9.7969	0	0	0	24.78623	120.9975	145.0971	-0.06378174	0.05392456	145.0971	-32	6.5
13:09:32:35	586	26.6094	0.79102	0.0011549	0.003149	0.6123	75.4856	0.204277	0.126221	-0.0075073	0.003624	0.12622	-0.12744	-0.16882	-0.031586	-0.22961	0.13611	9.7578	0	0	0	24.78623	120.9975	145.1001	-0.09039307	0.05102539	145.1001	-30	7
13:09:32:69	587	26.6094	0.77344	-0.00033522	0.00084543	0.63379	78.6655	0.0992864	0.0855713	-0.041199	-0.016861	0.085571	0.17017	0.20178	0.050842	0.21655	-0.1261	9.8438	0	0	0	24.78623	120.9975	145.0946	-0.04769897	0.04232788	145.0946	-31	6.25
13:09:33:03	588	26.6094	0.77246	-0.00052023	0.00092554	0.63525	78.8662	0.119767	0.00214195	0.01162	0.010376	0.002142	-0.1123	0.053955	-0.021332	0.010612	0.12537	9.7656	0	0	0	24.78623	120.9975	145.0416	0.02258301	0.03424072	145.0416	-30	6.25
13:09:33:37	589	26.5938	0.77246	-0.00076008	0.00074339	0.63525	78.8662	0.121103	-0.0120239	-0.00051546	0.0095444	-0.012024	0.050476	-0.014915	0.00083733	-0.025742	-0.054657	9.7891	0	0	0	24.78623	120.9975	145.0583	0.02250671	0.03613281	145.0583	-31	6.25
13:09:33:71	590	26.5938	0.77295	-0.00082541	0.00056505	0.63477	78.7874	0.110046	-0.00530243	-0.0033245	0.0067368	-0.0053024	-0.042114	0.018799	-0.0075302	-0.0084305	0.039215	9.7813	0	0	0	24.78623	120.9975	145.0572	0.01589966	0.03683472	145.0572	-31	5.75
13:09:34:04	591	26.5938	0.77295	-0.00096512	0.00043821	0.63428	78.7441	0.108988	-0.0139008	-0.0061607	0.0089111	-0.013901	0.01519	-0.0068283	-0.022995	-0.022415	-0.02594	9.7656	0	0	0	24.78623	120.9975	145.0276	0.01818848	0.03549194	145.0276	-30	6.25
13:09:34:38	592	26.5938	0.77979	-0.0016079	-0.00025702	0.62646	77.5554	0.0924123	-0.135132	-0.0026035	0.016907	-0.13513	0.51563	-0.027863	-0.025314	0.068054	-0.5376	9.7656	0	0	0	24.78623	120.9975	145.0209	0.07714844	0.03393555	145.0209	-29	5.75
13:09:34:72	593	26.5938	0.79297	-0.0017624	0.00098133	0.60938	75.0824	0.212208	-0.111511	-0.0024853	-0.005661	-0.11151	0.21228	0.043427	0.050049	0.061798	-0.20972	9.8359	0	0	0	24.78623	120.9975	145.0367	0.168335	0.001867294	145.0367	-31	6
13:09:35:06	594	26.5938	0.79932	-0.0041885	0.00046968	0.60059	73.8395	0.33141	0.0257111	0.0089951	0.031647	0.025711	0.59814	-0.14343	0.21716	-0.0318298	-0.674805	10	0	0	0	24.78623	120.9975	145	0.3972168	-0.074646	145	-29	6.5
13:09:35:40	595	26.6094	0.80176	-0.0028992	-0.00105	0.59717	73.3589	0.101981	-0.137085	0.16541	0.088684	-0.13708	1.5332	0.16248	-3.1035	0.5791	-1.4502	6.6797	0	0	0	24.78623	120.9975	144.9991	0.6289063	-0.1259766	144.9991	-30	6
13:09:35:73	596	26.6094	0.81104	-0.002018	-0.001193	0.58496	71.6022	0.0243899	-0.0558472	-0.0016212	-0.0070763	-0.055847	0.65625	0.625	-0.073181	0.79736	-0.47095	9.7109	0	0	0	24.78623	120.9975	145.0123	0.6298828	-0.1739502	145.0123	-31	6.5
13:09:36:07	597	26.5781	0.81641	-0.004055	-0.00087452	0.57764	70.5608	0.18656	-0.0279694	0.0041656	0.067322	-0.027969	0.28247	0.22205	0.97119	0.261963	-0.273926	10.7578	0	0	0	24.78623	120.9975	144.979	0.6875	-0.2064209	144.979	-33	6.75
13:09:36:41	598	26.5781	0.81494	-0.0022373	-0.0019836	0.57959	70.8413	-0.0366469	0.0270996	-0.064453	0.0040779	0.0271	0.75586	1.4424	0.23926	1.61816	-0.306885	10.0234	0	0	0	24.78623	120.9975	145.0004	0.7260742	-0.2177734	145.0004	-31	6.5
13:09:36:75	599	26.5781	0.8125	-0.00052691	-0.0013952	0.58301	71.3226	-0.0946967	0.0447083	0.040009	0.14294	0.044708	1.5322	1.1436	1	1.57715	-1.1084	10.7891	0	0	0	24.78623	120.9975	145.0271	0.7802734	-0.2266846	145.0271	-35	5.25
13:09:37:08	600	26.5625	0.80908	-0.0018768	-0.0016556	0.5874	71.9602	-0.0271724	0.00379372	0.22791	0.046051	0.0037937	-0.15649	2.1426	1.7852	1.98926	0.78125	11.5781	0	0	0	24.78623	120.9975	145.0361	0.8081055	-0.2139893	145.0361	-37	6.25
13:09:37:42	601	26.5625	0.80713	-0.00065136	-0.0023632	0.59033	72.3636	-0.174519	0.0643311	0.13794	0.19275	0.064331	1.1152	0.11713	-1.3447	0.45874	-1.0479	8.4375	0	0	0	24.78622	120.9975	145.092	0.8085938	-0.213501	145.092	-36	6.5
13:09:37:76	602	26.5625	0.80176	-0.0061913	-0.0059662	0.59766	73.4051	-0.124115	0.0723877	0.27295	0.28662	0.072388	1.4365	0.521	3.7793	0.900391	-1.42188	13.5469	0	0	0	24.78622	120.9975	145.1394	0.8378906	-0.1962891	145.1394	-38	6.5
13:09:38:10	603	26.5469	0.7959	-0.0035152	-0.0022068	0.60547	74.5229	0.042623	0.0808716	-0.17053	0.047638	0.080872	-2.084	1.1123	2.627	0.502441	2.18164	12.4375	0	0	0	24.78622	120.9975	145.2113	0.8081055	-0.1555176	145.2113	-38	6.75
13:09:38:44	604	26.5469	0.78418	-0.0045166	0.00016057	0.62061	76.7155	0.335598	0.210205	0.016037	0.20032	0.21021	-2.2285	-1.4717	-2.2031	-1.998	1.7852	7.582	0	0	0	24.78622	120.9975	145.2873	0.8544922	-0.1591797	145.2873	-39	6.5
13:09:38:78	605	26.5469	0.76807	-0.0047455	0.0011797	0.64014	79.617	0.45206	0.0738525	-0.086243	0.064575	0.073853	0.20142	1.3701	0.30908	1.29883	-0.019104	10.1094	0	0	0	24.78622	120.9975	145.3546	0.8427734	-0.09020996	145.3546	-41	6.5
13:09:39:11	606	26.5625	0.7627	-0.0028591	0.0014896	0.64648	80.5709	0.34212	0.0089798	0.0672	0.11591	0.0089798	0.83301	-1.8896	-1.6709	-1.7852	-1.1455	8.1016	0	0	0	24.78622	120.9975	145.4309	0.8461914	-0.07037354	145.4309	-41	6.5
13:09:39:45	607	26.5625	0.75684	-0.0023994	0.00055265	0.65381	81.6452	0.227637	0.0622253	-0.0021744	0.048218	0.062225	-1.3955	0.13416	0.87891	-0.116028	1.36914	10.6719	0	0	0	24.78622	120.9975	145.4774	0.8725586	-0.03884888	145.4774	-42	5.75
13:09:39:79	608	26.5625	0.74756	-0.00066614	-6.54E-05	0.66455	83.2717	0.0451054	0.0679321	-0.065247	-0.060577	0.067932	-0.50049	-0.66455	-2.1035	-0.71924	0.40601	7.6875	0	0	0	24.78622	120.9975	145.4821	0.8422852	-0.01829529	145.4821	-42	6.25
13:09:40:13	609	26.5625	0.74219	0.0024929	-0.002037	0.67041	84.1822	-0.364653	0.00324249	0.078308	0.067627	0.0032425	3.377	-1.1631	-4.9922	-0.78613	-3.4688	4.8047	0	0	0	24.78622	120.9975	145.4973	0.8393555	0.003181458	145.4973	-41	6
13:09:40:47	610	26.5625	0.73828	-0.0023155	-0.0030518	0.6748	84.8562	-0.0790946	0.00401306	0.037079	0.11609	0.0040131	1.9482	0.16296	-1.2422	0.33887	-1.9873	8.5313	0	0	0	24.78622	120.9975	145.5053	0.940918	0.02316284	145.5053	-42	6
13:09:40:80	611	26.5625	0.74658	-0.0022545	-0.0020523	0.66553	83.4297	-0.0036421	-0.139648	0.1554	0.23145	-0.13965	-0.011063	0.17786	0.94482	0.1521	-0.0171356	10.7344	0	0	0	24.78622	120.9975	145.4752	0.8828125	0.04559326	145.4752	-44	6.75
13:09:41:14	612	26.5625	0.7583	-0.0021858	0.0008831	0.65186	81.3662	0.240026	-0.0894775	0.090027	0.11707	-0.089478	0.58643	-2.084	-1.7979	-2.0137	-0.90381	7.9805	0	0	0	24.78622	120.9975	145.4669	0.9287109	-0.007465363	145.4669	-44	6.5
13:09:41:48	613	26.5625	0.76367	-0.0015554	0.0027332	0.64551	80.4138	0.354285	-0.0021534	0.12952	-0.07666	-0.0021534	-0.46289	0.51123	1.5264	0.366455	0.569824	11.3125	0	0	0	24.78622	120.9975	145.4499	0.9584961	-0.01971436	145.4499	-43	6.75
13:09:41:82	614	26.5625	0.75879	-0.0023479	0.0026932	0.65137	81.2875	0.409409	0.0637207	0.090698	0.0084381	0.063721	-0.38574	-0.27515	-0.087219	-0.39941	0.34839	9.6953	0	0	0	24.78622	120.9976	145.3888	0.9243164	-0.003639221	145.3888	-44	7
13:09:42:16	615	26.5313	0.75684	-0.0022678	0.0017376	0.65381	81.6454	0.320519	-0.0149078	-0.025864	0.012062	-0.014908	-0.35815	-0.14636	-0.23047	-0.25049	0.31982	9.5547	0	0	0	24.78622	120.9976	145.3429	0.9257813	0.003538132	145.3429	-45	6.25
13:09:42:50	616	26.5313	0.75928	-0.0029602	0.0022144	0.65088	81.2083	0.413396	-0.019989	-0.1344	0.0053978	-0.019989	-0.64648	3.4277	2.2402	3.20313	1.12793	12.0547	0	0	0	24.78622	120.9976	145.3218	0.9526367	0.01176453	145.3218	-51	6.25
13:09:42:83	617	26.5313	0.75781	-0.00457	0.0025578	0.65234	81.4444	0.563823	0.0261536	-0.029556	0.11658	0.026154	0.57129	-1.5674	-1.291	-1.5576	-0.83057	8.4766	0	0	0	24.78622	120.9976	145.2668	0.9619141	-0.01326752	145.2668	-46	6.5
13:09:43:17	618	26.5313	0.75342	-0.0041504	0.0033703	0.65771	82.2397	0.60364	0.132935	0.17004	0.43481	0.13293	1.4375	-2.6816	-3.8457	-2.5527	-1.7832	5.9063	0	0	0	24.78622	120.9976	145.2412	0.9848633	0.01493835	145.2412	-41	0.5
13:09:43:51	619	26.5313	0.74805	-0.0030651	0.0021534	0.66357	83.1505	0.417697	0.0457764	-0.10144	-0.059509	0.045776	-1.2744	-1.0117	-1.875	-1.208	1.124	7.9102	0	0	0	24.78622	120.9976	145.189	0.9858398	0.0171814	145.189	-45	6.75
13:09:43:85	620	26.5313	0.74072	-0.0032368	0.0075188	0.67188	84.4218	0.8873	0.0253906	0.51221	0.49585	0.025391	-6.7188	-1.5898	0.47437	-2.44141	6.64063	10.1484	0	0	0	24.78622	120.9976	145.1514	0.9165039	0.05923462	145.1514	-46	6.5
13:09:44:19	621	26.5156	0.7417	-0.0079117	-0.0016642	0.67041	84.2166	0.466537	-0.0773315	-0.018951	0.029251	-0.077332	-0.91309	0.17114	0.78516	-0.010498	0.775879	10.5859	0	0	0	24.78622	120.9976	145.1157	0.9985352	0.04580688	145.1157	-48	6.25
13:09:44:52	622	26.5156	0.75244	-0.0053825	0.0012169	0.65869	82.3965	0.51117	-0.100464	-0.029343	0.060242	-0.10046	-1.3984	-0.25488	-0.65527	-0.5249	1.29	9.1406	0	0	0	24.78622	120.9976	145.0625	0.9790039	0.0355835	145.0625	-49	6.5
13:09:44:86	623	26.5156	0.7627	-0.0033321	-0.00074673	0.64697	80.6134	0.181722	-0.0731812	0.13269	-0.08197	-0.073181	1.0918	-2.4961	-4.4141	-2.2949	-1.5117	5.3633	0	0	0	24.78622	120.9976	145.0521	0.9438477	-0.02201843	145.0521	-51	6.25
13:09:45:20	624	26.5313	0.77002	-0.0022602	-0.0026531	0.6377	79.2603	-0.0689697	-0.0158844	-0.1123	0.097168	-0.015884	-0.86377	1.1064	1.4121	0.929688	0.965332	11.2109	0	0	0	24.78622	120.9976	145.0387	0.9511719	-0.04067993	145.0387	-52	7
13:09:45:54	625	26.5313	0.76904	-0.0045052	-0.0042572	0.63916	79.461	-0.0452015	0.0156403	0.010605	-0.048676	0.01564	-0.30591	2.0762	2.5352	2.00195	0.527832	12.3281	0	0	0	24.78622	120.9976	144.9752	0.9819336	-0.01327515	144.9752	-53	6.25
13:09:45:87	626	26.5313	0.77002	-0.0031681	-0.0042496	0.63818	79.3039	-0.143254	-0.0117798	0.05368	0.048523	-0.01178	1.0801	0.94629	1.8311	1.1543	-0.999023	11.6094	0	0	0	24.78622	120.9976	144.9511	0.9770508	-0.04891968	144.9511	-55	6.25
13:09:46:21	627	26.5313	0.76904	-0.0019045	-0.0015936	0.63916	79.4607	-0.000947301	0.0030632	0.024445	-0.013	0.0030632	-1.1494	-0.34204	-1.0693	-0.54492	1.0264	8.7266	0	0	0	24.78622	120.9976	144.9346	0.9960938	-0.05288696	144.9346	-56	6.5
13:09:46:55	628	26.5313	0.76904	-0.0039063	0.00077057	0.63916	79.4598	0.354023	0.00993347	-0.0078964	0.0093994	0.0099335	1.4336	0.6333	1.2686	0.815918	-1.34961	11.0547	0	0	0	24.78622	120.9976	144.9165	0.9560547	-0.02659607	144.9165	-59	6.75
13:09:46:89	629	26.5313	0.76514	-0.0014162	0.0022335	0.64404	80.1771	0.30028	0.0284424	0.01358	0.0077896	0.028442	-0.96436	1.7207	0.51807	1.47656	1.25195	10.3125	0	0	0	24.78622	120.9976	144.9426	0.9160156	-0.0141449	144.9426	-57	6.25
13:09:47:23	630	26.5156	0.76172	-0.0028591	0.0030613	0.64795	80.7716	0.479469	0.0234833	-0.034576	0.11938	0.023483	0.86523	-0.043762	-0.63135	0.0079269	-0.86816	9.1563	0	0	0	24.78622	120.9976	144.9675	0.9472656	-0.006782532	144.9675	-57	6.5
13:09:47:57	631	26.5156	0.76074	-0.0034332	0.0010242	0.64941	80.9714	0.344617	-0.0256042	-0.021469	0.11493	-0.025604	1.2188	1.5625	1.2471	1.65527	-1.00391	11.0469	0	0	0	24.78622	120.9976	144.9684	1.001953	0.001851082	144.9684	-56	6.25
13:09:47:90	632	26.5156	0.76318	-0.0041084	0.0015345	0.646	80.4915	0.438426	-0.0853271	-0.20056	-0.06427	-0.085327	-2.0117	2.6797	4.8086	2.20703	2.33594	14.6328	0	0	0	24.78622	120.9976	144.9732	0.9790039	0.005817413	144.9732	-54	6.75
13:09:48:24	633	26.5156	0.771	-0.0083084	-0.00071192	0.63721	79.1419	0.543487	-0.104919	0.41162	-0.12323	-0.10492	1.2324	-1.9102	-1.499	-1.71	-1.6514	8.2578	0	0	0	24.78622	120.9976	145.002	1.037109	-0.04647827	145.002	-55	6.5
13:09:48:58	634	26.5156	0.77783	-0.0075531	-0.0007863	0.62891	77.9106	0.473966	-0.0909424	0.064697	0.0058823	-0.090942	0.78613	-2.5547	-2.2461	-2.3945	-1.3965	7.5078	0	0	0	24.78622	120.9976	145.0099	1.046875	-0.07958984	145.0099	-56	6.75
13:09:48:92	635	26.5156	0.78174	-0.0054474	-0.0022202	0.62354	77.1525	0.190354	0.00226402	0.010925	-3.84E-05	0.002264	0.044952	-0.070007	0.40503	-0.0913086	-0.17334	10.1953	0	0	0	24.78622	120.9976	145.0078	1.066406	-0.08856201	145.0078	-57	6.5
13:09:49:26	636	26.5	0.78027	-0.0030575	-0.0065994	0.62549	77.4356	-0.370886	0.0118942	-0.21069	0.040863	0.011894	2.0391	0.34277	-2.6426	0.82178	-2.0234	7.1133	0	0	0	24.78622	120.9976	145.0012	1.035156	-0.07769775	145.0012	-60	6.5
13:09:49:59	637	26.5	0.7793	-8.30E-05	-0.0021248	0.62646	77.5908	-0.183832	0.0348511	0.015137	0.10284	0.034851	2.7285	0.45703	-4.5859	1.043	-2.582	5.1953	0	0	0	24.78622	120.9976	144.9678	1.026367	-0.08422852	144.9678	-60	7
13:09:49:93	638	26.4688	0.77441	-0.0004437	-0.00047684	0.63281	78.508	-0.0101388	0.167236	0.075562	0.040894	0.16724	-1.1377	3.3867	5.8359	3.09375	1.77539	15.625	0	0	0	24.78622	120.9976	144.9344	1.042969	-0.02462769	144.9344	-59	6.5
13:09:50:27	639	26.4688	0.76318	-0.00067806	-0.00072813	0.646	80.4924	-0.0134874	0.140381	0.40259	0.061798	0.14038	1.1709	3.1113	1.415	3.25781	-0.622559	11.2031	0	0	0	24.78622	120.9976	144.8968	1.106445	-0.04693604	144.8968	-60	6.5
13:09:50:61	640	26.4688	0.75391	0.00090456	-0.00058651	0.65674	82.1191	-0.118781	0.0228119	-0.031158	-0.023697	0.022812	-0.28052	0.9917	1.0225	0.970215	0.416504	10.8125	0	0	0	24.78622	120.9976	144.8794	1.049805	-0.0246582	144.8794	-59	6.5
13:09:50:94	641	26.4844	0.75391	-0.0027084	-0.0003767	0.65674	82.1188	0.171338	-0.0518494	-0.066528	0.0057831	-0.051849	-0.40161	-2.1094	-2.0547	-2.168	0.067749	7.7266	0	0	0	24.78622	120.9976	144.8703	1.020508	-0.02580261	144.8703	-69	6
13:09:51:28	642	26.4844	0.7583	-0.0017796	-0.0029507	0.65186	81.3669	-0.123477	0.000441551	0.15869	-0.070251	0.00044155	-0.88281	-1.2207	-1.3936	-1.3154	0.64746	8.4063	0	0	0	24.78622	120.9976	144.8359	1.061523	-0.05661011	144.8359	-65	6.5
13:09:51:62	643	26.4844	0.75537	-0.0036869	-0.0051727	0.65479	81.8411	-0.171216	0.00505829	0.039307	0.1073	0.0050583	1.3896	1.8408	3.9277	2.04688	-1.27832	13.6953	0	0	0	24.78622	120.9977	144.8352	1.054688	-0.02819824	144.8352	-70	6.5
13:09:51:96	644	26.4688	0.75439	-0.00026202	-0.004509	0.65674	82.0836	-0.36991	0.0020771	-0.11987	0.12793	0.0020771	2.8027	3.25	2.1191	3.66797	-2.41602	11.8672	0	0	0	24.78622	120.9977	144.8406	1.020508	-0.02207947	144.8406	-63	6
13:09:52:30	645	26.4688	0.75293	-0.002861	-0.00021625	0.65771	82.2766	0.197073	0.0244141	-0.0045357	-0.09552	0.024414	0.35425	-3.082	-1.4248	-3.0273	-0.80225	8.3516	0	0	0	24.78622	120.9977	144.8053	0.996582	-0.05639648	144.8053	-64	6.75
13:09:52:64	646	26.4688	0.74902	-0.0023556	-0.0011711	0.66211	82.9508	0.0782484	0.0317993	0.012459	-0.012695	0.031799	-0.59863	-0.53027	0.1886	-0.61084	0.47998	9.9766	0	0	0	24.78622	120.9977	144.7921	1.047852	-0.03729248	144.7921	-65	6.5
13:09:52:98	647	26.4844	0.74463	0.0018005	-0.00059748	0.66748	83.7455	-0.1887	0.041748	0.051483	-0.11621	0.041748	-0.19507	-0.21423	0.52979	-0.187378	0.195435	10.3203	0	0	0	24.78622	120.9977	144.7747	1.009766	-0.02915955	144.7747	-61	6
13:09:53:31	648	26.4844	0.73877	-0.0014095	-0.0016823	0.67432	84.777	-0.0334844	0.0414429	0.002182	0.011772	0.041443	0.073975	1.3555	2.0391	1.36328	-0.00188828	11.8281	0	0	0	24.78622	120.9977	144.7423	1.041992	-0.004722595	144.7423	-64	6.5
13:09:53:65	649	26.4844	0.729	-0.0015793	2.00E-05	0.68408	86.3582	0.125541	0.11969	0.069824	-0.059052	0.11969	1.2441	0.7793	-1.1123	0.8418	-1.207	8.6719	0	0	0	24.78622	120.9977	144.731	1.013672	0.01155853	144.731	-63	6.75
13:09:53:99	650	26.4531	0.7251	-0.00064516	-1.19E-05	0.68848	87.0319	0.0499251	-0.0187073	-0.098877	0.050568	-0.018707	1.3086	0.70752	0.80322	0.76123	-1.29004	10.5938	0	0	0	24.78622	120.9977	144.75	1	0.02444458	144.75	-61	6.75
13:09:54:33	651	26.4531	0.73096	-0.0036907	-0.0090103	0.68213	86.0461	-0.466376	-0.185059	-0.093811	0.06015	-0.18506	4.58203	8.71094	13.1016	9.1875	-4.37891	22.7344	0	0	0	24.78621	120.9977	144.7297	0.9970703	0.05102539	144.7297	-66	6.5
13:09:54:67	652	26.4531	0.73828	-0.0024509	0.0029278	0.67432	84.8147	0.437181	-0.0393982	-0.32666	-0.081238	-0.039398	-1.2979	0.44531	3.4453	0.236938	1.29395	13.2422	0	0	0	24.78622	120.9977	144.745	0.9848633	-0.003917694	144.745	-83	6.5
13:09:55:00	653	26.4844	0.74414	0.0017586	0.0073357	0.66797	83.8277	0.490934	-0.0451355	0.079529	0.052887	-0.045135	-2.6875	-1.6914	0.74121	-2.06836	2.62695	10.4766	0	0	0	24.78621	120.9977	144.7424	1	-0.0430603	144.7424	-65	7
13:09:55:34	654	26.4844	0.74219	0.00015497	0.0022202	0.67041	84.1826	0.176863	0.0500793	-0.033813	0.32886	0.050079	1.6279	1.4238	4.2383	1.49219	-1.43555	14.0391	0	0	0	24.78621	120.9977	144.7118	0.9887695	-0.03004456	144.7118	-61	6.5
13:09:55:68	655	26.4844	0.73242	-4.41E-06	0.0020351	0.68066	85.8049	0.171195	0.085083	0.088074	-0.0036087	0.085083	-0.78125	-1.7871	2.3457	-1.87402	0.694824	12.125	0	0	0	24.78621	120.9977	144.7232	1.001953	-0.04147339	144.7232	-60	6.5
13:09:56:02	656	26.4688	0.72412	-0.0009017	0.0001303	0.68994	87.2307	0.0820709	0.0447083	0.096558	-0.014679	0.044708	-0.1449	-0.60205	0.37207	-0.620605	0.114258	10.1641	0	0	0	24.78621	120.9977	144.6971	1.005859	-0.009864807	144.6971	-60	6.5
13:09:56:36	657	26.4688	0.71777	-0.0023613	-0.0029545	0.69629	88.2593	-0.0546016	-0.000326395	-0.16223	0.067444	-0.0003264	0.57617	0.76416	0.46875	0.784668	-0.646484	10.25	0	0	0	24.78621	120.9977	144.7018	0.965332	0.009750366	144.7018	-60	6.75
13:09:56:69	658	26.4688	0.71338	0.002573	0.0010796	0.70117	89.0108	-0.11842	0.0280457	0.06427	0.092529	0.028046	-1.3604	-1.3213	0.40747	-1.33203	1.39746	10.1875	0	0	0	24.78621	120.9977	144.6839	0.9384766	-0.003072739	144.6839	-62	6.5
13:09:57:03	659	26.5	0.70459	0.0032501	0.00074625	0.70947	90.3951	-0.204021	0.11084	-0.066223	-0.034668	0.11084	-0.16638	1.626	-0.0051689	1.666	0.20239	9.7734	0	0	0	24.78621	120.9977	144.6623	0.9633789	0.03646851	144.6623	-64	6.5
13:09:57:37	660	26.5	0.68164	0.0023079	0.001358	0.73145	94.0369	-0.0873957	0.294678	0.096741	-0.044739	0.29468	-1.4434	-0.71436	0.30786	-0.585449	1.55371	10.0859	0	0	0	24.78621	120.9977	144.6534	0.9511719	0.05984497	144.6534	-60	6.5
13:09:57:71	661	26.5	0.64893	0.0030975	0.0004456	0.76074	99.07	-0.236928	0.286865	-0.012032	0.042511	0.28687	-0.93262	0.25195	0.52051	0.437744	0.927246	10.3047	0	0	0	24.78621	120.9977	144.6321	0.9375	0.1342773	144.6321	-61	6.5
13:09:58:05	662	26.4688	0.60254	-0.002636	0.00081158	0.79785	105.8794	0.2971456	0.1915283	-0.32178	1.3896	0.19153	5.6328	0.14966	-2.959	-1.5371	-5.4883	6.7734	0	0	0	24.78621	120.9977	144.5988	0.9560547	0.2668457	144.5988	-63	6.25
13:09:58:39	663	26.4688	0.55371	0.0052567	-0.002039	0.83252	112.7433	-0.6310479	0.3691406	0.079407	0.083069	0.36914	1.1953	-0.68311	-2.9063	-1.0244	-0.8125	6.8984	0	0	0	24.78622	120.9977	144.5968	0.9375	0.3183594	144.5968	-63	6
13:09:58:73	664	26.4688	0.50537	0.0041008	-0.0014448	0.86279	119.2813	-0.4892011	0.3217773	0.0096893	0.22534	0.32178	-0.9292	1.4219	0.97949	1.76367	0.128174	10.7578	0	0	0	24.78622	120.9977	144.6102	0.8852539	0.4458008	144.6102	-60	7
13:09:59:07	665	26.4844	0.46021	0.00064135	-0.0014029	0.8877	125.1933	-0.1392485	0.2956543	-0.03009	-0.21375	0.29565	0.06131	-1.5449	-2.4629	-1.2617	0.82813	7.3359	0	0	0	24.78622	120.9977	144.5646	0.8149414	0.463623	144.5646	-60	7
13:09:59:40	666	26.4844	0.40234	-0.0044861	-0.0049095	0.91553	132.5507	0.2442612	0.4309082	-0.51025	-0.14941	0.43091	-1.6377	-1.2227	1.9082	0.18396	1.8252	11.7344	0	0	0	24.78622	120.9977	144.5528	0.6938477	0.5366211	144.5528	-62	6.25
13:09:59:74	667	26.4844	0.33862	-0.003252	-0.0035744	0.94092	140.4129	0.2119375	0.4025879	0.075134	0.078979	0.40259	1.5645	-0.036102	-0.84668	-1.2725	-1.0371	8.9297	0	0	0	24.78622	120.9977	144.5284	0.6293945	0.5986328	144.5284	-64	6.25
13:10:00:08	668	26.4688	0.28125	0.0027466	-0.0035095	0.95947	147.3262	-0.415212	0.369873	-0.10046	0.13501	0.36987	-1.7861	2.3945	0.57178	2.85352	-1.12695	10.3359	0	0	0	24.78622	120.9977	144.4808	0.496582	0.6225586	144.4808	-63	6.5
13:10:00:42	669	26.4688	0.22693	0.00038218	-0.0047951	0.97412	153.7736	-0.1672815	0.2998047	-0.0093384	-0.036987	0.2998	0.97852	0.26245	-1.4521	-0.73584	-0.74316	8.3359	0	0	0	24.78622	120.9977	144.4736	0.3991699	0.6264648	144.4736	-70	6.75
13:10:00:76	670	26.4688	0.17957	0.0042648	-0.00037909	0.98389	159.3138	-0.488501	0.3288574	0.13745	0.072021	0.32886	-2.8164	0.65088	0.45996	2.94531	0.398193	10.2266	0	0	0	24.78623	120.9977	144.4578	0.3305664	0.7329102	144.4578	-66	6.5
13:10:01:09	671	26.4844	0.12891	0.0035381	-0.0039024	0.9917	165.1894	-0.4596731	0.2453613	0.021576	-0.020447	0.24536	1.9805	2.4824	-1.8291	-1.2207	-2.9551	7.9531	0	0	0	24.78623	120.9977	144.3851	0.2575684	0.7607422	144.3851	-63	6.25
13:10:01:43	672	26.4844	0.093262	0.0041656	-0.0028439	0.99561	169.2983	-0.505673	0.1933594	0.067566	0.093872	0.19336	-2.6855	-0.013405	3.8633	2.74609	0.448975	13.6328	0	0	0	24.78623	120.9977	144.3716	0.1575928	0.7348633	144.3716	-68	6.5
13:10:01:77	673	26.4844	0.066101	0.0024052	-0.0022469	0.99805	172.4222	-0.2919544	0.1547852	0.096008	-0.02533	0.15479	-1.166	-1.2646	1.2637	1.05176	1.37012	11.0547	0	0	0	24.78623	120.9977	144.323	0.1063843	0.7050781	144.323	-75	6.5
13:10:02:11	674	26.4844	0.048126	0.0032501	-0.0040932	0.99902	174.4856	-0.3944949	0.09997559	-0.045746	-0.044556	0.099976	-0.67383	0.61523	-0.63477	0.79688	-0.62451	9.1406	0	0	0	24.78624	120.9977	144.3103	0.06878662	0.6845703	144.3103	-64	6.5
13:10:02:45	675	26.4844	0.029739	0.0065231	-0.0020866	0.99951	176.5929	-0.7542977	0.1434326	-0.12659	-0.072388	0.14343	-1.9883	0.51172	-0.34131	2.1465	-0.44312	9.4141	0	0	0	24.78624	120.9977	144.3223	0.02577209	0.6459961	144.3223	-72	6
13:10:02:78	676	26.4688	0.0092468	0.0037975	-0.002533	1	178.9415	-0.4378067	0.1645508	0.011971	-0.040039	0.16455	-0.76807	-0.49683	-1.1758	0.8291	0.46753	8.6094	0	0	0	24.78624	120.9977	144.3019	-0.01204681	0.6889648	144.3019	-71	6.5
13:10:03:12	677	26.4688	-0.019821	0.0039673	-0.0045853	1	-177.7269	-0.4440164	0.1450195	-0.080261	0.0019484	0.14502	-0.22302	-0.31689	0.20508	0.31372	0.20618	9.9922	0	0	0	24.78624	120.9977	144.3146	-0.06915283	0.6733398	144.3146	-71	6.75
13:10:03:46	678	26.4688	-0.047638	0.0043373	-0.0019112	0.99902	-174.5389	-0.4859417	0.201416	0.013893	0.0013056	0.20142	0.29443	-1.0107	-0.59961	-0.11627	0.99658	9.1953	0	0	0	24.78625	120.9977	144.3133	-0.1140137	0.6743164	144.3133	-81	6.75
13:10:03:80	679	26.4375	-0.08075	0.0035229	-0.0035496	0.99658	-170.7339	-0.3695723	0.2181396	0.13269	-0.055573	0.21814	-0.10602	0.1875	0.52686	0.146851	-0.267578	10.3125	0	0	0	24.78625	120.9977	144.3051	-0.1804199	0.6538086	144.3051	-71	6.25
13:10:04:14	680	26.4375	-0.11652	0.0039444	-0.0039749	0.99316	-166.6158	-0.3958429	0.2597656	0.075867	-0.029282	0.25977	-0.27808	-0.092834	-0.68896	0.35815	-0.048218	9.0938	0	0	0	24.78625	120.9977	144.3249	-0.2432861	0.5957031	144.3249	-77	6.5
13:10:04:48	681	26.4375	-0.1637	0.00032258	-0.0055847	0.98633	-161.1539	0.0683222	0.3688965	-0.015053	0.042969	0.3689	-0.58643	0.55664	0.54785	0.356445	-0.834473	10.3281	0	0	0	24.78625	120.9977	144.3468	-0.3278809	0.590332	144.3468	-68	6
13:10:04:82	682	26.4688	-0.21875	0.0025368	-0.0020943	0.97559	-154.7233	-0.2311851	0.3100586	0.08075	0.0077438	0.31006	-0.11829	-0.064087	0.97656	0.177612	-0.0403137	10.7656	0	0	0	24.78625	120.9977	144.3339	-0.4003906	0.5551758	144.3339	-65	6.75
13:10:05:15	683	26.4688	-0.26563	0.0015259	-0.0048943	0.96387	-149.1853	-0.01956904	0.2578125	0.37646	0.073792	0.25781	-4.668	1.9502	-0.31348	2.9961	-4.1367	9.4531	0	0	0	24.78626	120.9977	144.3603	-0.4919434	0.4919434	144.3603	-62	6
13:10:05:49	684	26.4688	-0.30444	0.0011244	-0.0044136	0.95264	-144.5545	0.03122669	0.2252197	-0.06543	0.28174	0.22522	-1.2334	0.79541	1.2363	0.503418	-1.47168	11.0156	0	0	0	24.78626	120.9977	144.3845	-0.5317383	0.4226074	144.3845	-62	6.25
13:10:05:83	685	26.4375	-0.34399	0.00050831	-0.0040054	0.93896	-139.7593	0.1031965	0.2666016	0.22095	-0.10162	0.2666	-0.51709	1.7637	-0.39795	-0.75635	-1.7314	9.3828	0	0	0	24.78626	120.9977	144.3819	-0.6088867	0.4472656	144.3819	-66	6
13:10:06:17	686	26.4375	-0.38892	-0.0014448	-0.0018005	0.92139	-134.2312	0.2327426	0.3505859	0.37012	0.011681	0.35059	-2.3164	-1.9072	2.2031	2.93164	-0.321777	12.0078	0	0	0	24.78626	120.9977	144.3967	-0.7119141	0.3874512	144.3967	-63	6.25
13:10:06:50	687	26.4375	-0.42261	-0.0012779	-0.0035458	0.90625	-129.9991	0.3044538	0.1203613	0.172	0.62695	0.12036	-2.5684	4.8906	-5.9883	-2.1465	-5.1211	3.7559	0	0	0	24.78626	120.9977	144.4056	-0.7836914	0.3432617	144.4056	-62	6.25
13:10:06:84	688	26.4375	-0.44824	-0.00033498	-0.0034046	0.89404	-126.7454	0.2091449	0.09686279	-0.10718	0.64502	0.096863	-3.7813	-1.96	4.7773	3.68359	-1.96191	14.5859	0	0	0	24.78627	120.9977	144.3802	-0.8178711	0.2858887	144.3802	-66	6.5
13:10:07:18	689	26.4375	-0.48438	-0.0034771	-0.0041428	0.875	-122.0658	0.578437	0.1966553	-0.22363	-0.16797	0.19666	5.0117	-1.2832	-0.30713	-1.6426	4.875	9.5	0	0	0	24.78627	120.9977	144.3949	-0.78125	0.1895752	144.3949	-66	6
13:10:07:52	690	26.4375	-0.51367	-0.0017281	-0.0075035	0.85791	-118.1814	0.6116148	0.2111816	-0.0078812	-0.18689	0.21118	2.2813	0.59912	0.36011	-1.69043	1.61719	10.1563	0	0	0	24.78627	120.9977	144.3699	-0.8359375	0.1374512	144.3699	-72	6.75
13:10:07:85	691	26.4219	-0.54443	0.00069523	-0.0066376	0.83887	-114.0341	0.3472211	0.2568359	-0.10278	0.17529	0.25684	-0.49243	-1.6875	3.291	1.64063	0.06427	13.0938	0	0	0	24.78627	120.9977	144.3708	-0.8520508	0.03070068	144.3708	-68	6.75
13:10:08:19	692	26.4219	-0.58105	-0.0010319	-0.0042953	0.81396	-108.9583	0.382181	0.2489014	0.019165	-0.047028	0.2489	0.69434	0.13306	-0.97852	-0.40381	0.56543	8.8125	0	0	0	24.78627	120.9977	144.3704	-0.8486328	-0.05340576	144.3704	-68	6.25
13:10:08:53	693	26.4219	-0.60645	0.0076714	-0.0067863	0.79541	-105.3517	-0.2274899	0.1665039	0.1322	-0.21216	0.1665	-4.5977	-0.60498	2.3379	1.86816	-4.50391	12.0313	0	0	0	24.78627	120.9977	144.3642	-0.8842773	-0.107605	144.3642	-70	6.75
13:10:08:87	694	26.4063	-0.62695	0.00062466	-0.0052452	0.77881	-102.3322	0.3212039	0.1270752	-0.12561	-0.15039	0.12708	1.4307	0.14246	-0.016602	-0.48218	1.2686	9.7813	0	0	0	24.78627	120.9977	144.3837	-0.8535156	-0.1821289	144.3837	-66	6.75
13:10:09:21	695	26.4063	-0.6416	0.0029354	-0.0033436	0.76709	-100.1811	-0.01219996	0.07562256	0.14075	-0.0048981	0.075623	-2.0586	-1.0146	-0.97119	1.3633	-1.9141	8.8047	0	0	0	24.78627	120.9977	144.3964	-0.894043	-0.229248	144.3964	-63	6
13:10:09:55	696	26.4063	-0.64551	-5.24E-05	-0.0040779	0.76367	-99.5874	0.306262	0.0420532	0.28857	0.15417	0.042053	0.1543	0.83105	0.69336	-0.916504	-0.0198212	10.4766	0	0	0	24.78627	120.9977	144.3766	-0.90625	-0.2526855	144.3766	-61	6
13:10:09:89	697	26.4063	-0.65088	0.00012231	-0.0042267	0.75928	-98.7923	0.304558	0.0400085	0.0073586	-0.05423	0.040009	0.8042	0.90918	-1.5518	-1.0605	0.60254	8.2344	0	0	0	24.78627	120.9977	144.3986	-0.8828125	-0.2592773	144.3986	-63	6.25
13:10:10:22	698	26.4063	-0.65625	0.0039177	-0.0042	0.75488	-97.9964	-0.0230389	0.0534058	-0.11871	-0.10785	0.053406	-0.70557	-0.31934	-1.0547	0.42749	-0.76514	8.7266	0	0	0	24.78627	120.9977	144.4059	-0.8930664	-0.3049316	144.4059	-63	6.5
13:10:10:56	699	26.4063	-0.66211	0.0048065	-0.003336	0.74951	-97.0851	-0.159685	0.11792	0.022888	0.020996	0.11792	-0.41162	0.059662	-0.21057	0.016266	-0.52246	9.5703	0	0	0	24.78627	120.9977	144.3665	-0.8959961	-0.3254395	144.3665	-80	7
13:10:10:90	700	26.3906	-0.67676	0.0041771	-0.0011711	0.73633	-94.8269	-0.261579	0.140625	0.063416	0.12793	0.14063	0.10913	0.06958	-1.1074	-0.049194	0.044434	8.6797	0	0	0	24.78627	120.9977	144.3691	-0.8681641	-0.3774414	144.3691	-67	6
13:10:11:24	701	26.3906	-0.69092	0.0040703	0.00019467	0.72266	-92.5715	-0.352611	0.105164	-0.049438	-0.095093	0.10516	1.6631	0.81396	0.75439	-0.810059	1.56445	10.5625	0	0	0	24.78627	120.9977	144.3571	-0.8554688	-0.4042969	144.3571	-62	6.5
13:10:11:58	702	26.3906	-0.69531	0.0059166	0.0016356	0.71875	-91.8973	-0.617573	-0.0288544	-0.054626	0.12378	-0.028854	-1.0264	-0.76611	3.2363	0.925293	-1.08301	13.0078	0	0	0	24.78627	120.9977	144.3371	-0.8178711	-0.4299316	144.3371	-62	6.75
13:10:11:91	703	26.3906	-0.69434	0.0063095	0.00076723	0.71973	-92.0551	-0.581342	-0.0247498	-0.13782	0.027756	-0.02475	0.44141	-0.63721	1.5371	0.733887	0.361816	11.3203	0	0	0	24.78627	120.9977	144.33	-0.7871094	-0.4423828	144.33	-57	6.75
13:10:12:25	704	26.3906	-0.69189	0.007988	-0.0010147	0.72217	-92.4493	-0.580419	-0.0287018	0.062683	0.13367	-0.028702	-2.207	1.957	-0.62988	-1.7793	-2.3984	9.1484	0	0	0	24.78627	120.9977	144.3402	-0.8618164	-0.4255371	144.3402	-58	6.75
13:10:12:59	705	26.3906	-0.6875	0.0076637	0.001441	0.72607	-93.1231	-0.751258	-0.0900269	0.05777	0.23779	-0.090027	-1.2822	-1.457	0.5918	1.63867	-1.28125	10.3516	0	0	0	24.78626	120.9977	144.3166	-0.8349609	-0.4443359	144.3166	-57	6.25
13:10:12:93	706	26.3906	-0.66943	0.0076561	0.0014887	0.74268	-95.9351	-0.765966	-0.150269	-0.0034065	-0.014	-0.15027	0.67383	0.16296	-0.21631	-0.1026	0.57617	9.5781	0	0	0	24.78626	120.9977	144.3238	-0.7783203	-0.3986816	144.3238	-57	6.5
13:10:13:27	707	26.3906	-0.65039	0.0075188	0.0025692	0.75977	-98.8677	-0.845849	-0.129639	-0.040466	-0.055878	-0.12964	-0.38525	-0.038422	-0.065857	0.24756	-0.43555	9.7188	0	0	0	24.78626	120.9977	144.2751	-0.8271484	-0.3432617	144.2751	-59	6.75
13:10:13:61	708	26.3906	-0.62939	0.0072937	0.0043182	0.77686	-101.9713	-0.9610588	-0.1768799	0.035034	-0.064941	-0.17688	-0.69336	-0.64404	0.69238	0.958008	-0.56543	10.4688	0	0	0	24.78626	120.9977	144.3026	-0.8457031	-0.2963867	144.3026	-62	6.5
13:10:13:94	709	26.4063	-0.60791	0.0080338	0.001544	0.79395	-105.1156	-0.8385177	-0.1322021	-0.034973	0.046722	-0.1322	1.0859	-1.915	2.8145	1.74316	1.45313	12.5938	0	0	0	24.78626	120.9977	144.306	-0.8227539	-0.2607422	144.306	-71	7
13:10:14:28	710	26.4063	-0.604	0.0062866	0.00019479	0.79688	-105.6761	-0.5876324	0.08099365	0.0078201	0.10663	0.080994	-0.47876	1.958	-1.6553	-1.6807	-1.0469	8.1406	0	0	0	24.78626	120.9977	144.2894	-0.8505859	-0.2180176	144.2894	-61	6.5
13:10:14:62	711	26.3906	-0.62207	0.0061417	0.00032282	0.7832	-103.0802	-0.5739872	0.1168823	-0.065613	0.13513	0.11688	-0.11133	-1.1797	0.1637	1.2617	0.079956	9.9453	0	0	0	24.78626	120.9977	144.305	-0.8105469	-0.2729492	144.305	-59	6.5
13:10:14:96	712	26.3906	-0.62305	0.0049706	-0.00021112	0.78223	-102.9236	-0.430435	-0.05050659	0.27075	0.12024	-0.050507	-0.58057	-0.8042	0.45166	0.979004	-0.424805	10.2344	0	0	0	24.78626	120.9977	144.3069	-0.8408203	-0.3007813	144.3069	-61	7
13:10:15:30	713	26.3906	-0.61279	0.0053329	-9.24E-06	0.79004	-104.4006	-0.4823003	-0.1055908	0.0078735	0.056396	-0.10559	-1.083	0.077881	0.94824	0.280273	-1.1377	10.7266	0	0	0	24.78626	120.9976	144.2931	-0.8603516	-0.2404785	144.2931	-57	6
13:10:15:64	714	26.4063	-0.60938	0.0039063	0.00090647	0.79297	-104.9167	-0.4181888	0.0413208	-0.098267	0.033783	0.041321	-0.29175	-1.084	1.2061	1.19922	-0.0501099	10.9844	0	0	0	24.78626	120.9976	144.3067	-0.8691406	-0.2436523	144.3067	-54	6.75
13:10:15:98	715	26.4063	-0.61719	0.0029507	0.00053883	0.78662	-103.7637	-0.3041739	0.08050537	0.097595	0.010414	0.080505	0.77246	1.5137	-0.87012	-1.6064	0.375	8.9297	0	0	0	24.78626	120.9976	144.3329	-0.8662109	-0.2318115	144.3329	-54	6.5
13:10:16:31	716	26.4063	-0.62842	0.0073624	-0.00057077	0.77783	-102.1267	-0.6151476	0.04693604	-0.10645	0.12335	0.046936	-2.7285	-0.56885	-0.18384	1.2217	-2.6563	9.5625	0	0	0	24.78626	120.9976	144.3279	-0.8466797	-0.2634277	144.3279	-61	6.5
13:10:16:65	717	26.3906	-0.63184	0.0073471	0.00010973	0.77539	-101.6465	-0.6604426	0.01763916	-0.16235	-0.3252	0.017639	1.4795	-5.207	5.1133	5.02344	2.33984	14.8594	0	0	0	24.78626	120.9976	144.3398	-0.8657227	-0.2785645	144.3398	-59	6.5
13:10:16:99	718	26.3906	-0.63281	0.0084	-0.0037289	0.77393	-101.4527	-0.4747993	-0.01780701	-0.089722	-0.31006	-0.017807	-2.0059	-0.42236	0.21777	0.92725	-2.0547	9.9609	0	0	0	24.78626	120.9976	144.3544	-0.8955078	-0.2636719	144.3544	-57	6.5
13:10:17:33	719	26.3906	-0.63623	0.0037022	-0.0028915	0.77148	-100.9758	-0.1164796	0.02394104	-0.049316	0.17529	0.023941	-0.36743	-0.21899	1.9229	0.288818	-0.432617	11.7109	0	0	0	24.78626	120.9976	144.3345	-0.8432617	-0.2790527	144.3345	-55	7
13:10:17:67	720	26.3594	-0.63867	-0.00056076	0.0014095	0.76953	-100.6182	-0.0537052	0.01309967	0.0076637	0.0034466	0.0131	-0.3623	-0.17444	0.10925	0.24768	-0.29468	9.8984	0	0	0	24.78626	120.9976	144.3591	-0.8657227	-0.2714844	144.3591	-55	6.75
13:10:18:00	721	26.3594	-0.64063	-0.00083971	-0.00041819	0.76807	-100.3387	0.1045712	-0.03219604	-0.16516	0.10345	-0.032196	-0.99854	-2.1914	0.098572	2.3066	-0.60107	9.8906	0	0	0	24.78626	120.9976	144.3641	-0.8828125	-0.2990723	144.3641	-54	7
13:10:18:34	722	26.3594	-0.64111	-0.00066662	0.0012884	0.76758	-100.26	-0.03601308	0.04919434	0.0080109	-0.024414	0.049194	0.1449	0.84131	-0.30225	-0.84473	0.020569	9.4844	0	0	0	24.78626	120.9976	144.3237	-0.8447266	-0.2619629	144.3237	-53	6.25
13:10:18:68	723	26.3594	-0.64014	0.002594	0.0012798	0.76807	-100.3815	-0.322284	-0.04885864	0.016968	0.10675	-0.048859	-1.4229	-0.84668	4.1328	1.1543	-1.26367	13.9141	0	0	0	24.78626	120.9976	144.3172	-0.871582	-0.2561035	144.3172	-55	6
13:10:19:02	724	26.3594	-0.63477	0.0069771	0.0028305	0.77246	-101.1752	-0.8237733	-0.03799438	0.19202	0.033905	-0.037994	-2.5938	-2.2129	-2.3555	2.7793	-2.1328	7.3906	0	0	0	24.78626	120.9976	144.284	-0.9418945	-0.2172852	144.284	-66	6.5
13:10:19:36	725	26.3594	-0.63867	0.0037479	0.001152	0.76953	-100.6175	-0.4147776	0.06610107	0.07019	0.18286	0.066101	-0.68799	0.77051	0.2323	-0.57666	-0.84082	10.0234	0	0	0	24.78626	120.9976	144.2929	-0.9360352	-0.2169189	144.2929	-64	7
13:10:19:70	726	26.375	-0.64893	0.0035038	0.00084972	0.76074	-99.0699	-0.368688	0.0566101	-0.099854	-0.070007	0.05661	0.96094	0.76367	-0.81641	-0.84033	0.79053	8.9844	0	0	0	24.78626	120.9976	144.2887	-0.9331055	-0.2310791	144.2887	-68	6
13:10:20:03	727	26.375	-0.65088	0.0027714	-0.00019574	0.75928	-98.7909	-0.226495	-0.0328979	0.0066376	0.050751	-0.032898	-0.20044	0.12476	0.47607	-0.056427	-0.256592	10.2656	0	0	0	24.78626	120.9976	144.2442	-0.9331055	-0.2462158	144.2442	-56	5.5
13:10:20:37	728	26.375	-0.64648	0.0013237	-0.00068045	0.7627	-99.4286	-0.0653037	0.0165253	-0.001317	-0.043884	0.016525	1	-0.22168	0.051025	0.071594	0.99609	9.8438	0	0	0	24.78626	120.9976	144.2367	-0.8554688	-0.237793	144.2367	-55	6.25
13:10:20:71	729	26.375	-0.64844	0.00076675	0.00058031	0.76123	-99.1494	-0.110011	0.0105057	0.0039673	0.006134	0.010506	-2.3945	2.4746	-4.0195	-2.0527	-2.7578	5.7734	0	0	0	24.78626	120.9976	144.2386	-0.9321289	-0.2164307	144.2386	-52	6
13:10:21:05	730	26.375	-0.64453	0.0013981	-0.00096369	0.76465	-99.744	-0.0513219	-0.0252228	0.11591	-0.20068	-0.025223	1.8525	0.43066	0.14478	-0.70801	1.7324	9.9375	0	0	0	24.78626	120.9976	144.1858	-0.9101563	-0.190918	144.1858	-53	6.5
13:10:21:39	731	26.375	-0.64941	-0.0021725	-0.0010366	0.76074	-99.0278	0.266404	0.0525818	-0.16211	0.06488	0.052582	0.53027	0.80762	-1.1523	-0.92529	0.39429	8.6328	0	0	0	24.78626	120.9976	144.1859	-0.9086914	-0.1934814	144.1859	-54	7
13:10:21:73	732	26.3594	-0.65723	-0.0037289	0.00029469	0.75391	-97.8379	0.299849	0.0829468	0.13635	-0.19543	0.082947	2.4277	0.63037	0.19128	-0.98584	2.3867	9.9609	0	0	0	24.78626	120.9976	144.1924	-0.9423828	-0.2070313	144.1924	-50	6.5
13:10:22:06	733	26.3594	-0.65771	0.00028944	-0.00097752	0.75342	-97.7598	0.048674	-0.026001	0.040588	0.011131	-0.026001	0.76123	-1.0215	-0.034698	0.90088	0.87793	9.7578	0	0	0	24.78626	120.9976	144.1436	-0.9882813	-0.2049561	144.1436	-47	6.5
13:10:22:40	734	26.3594	-0.65332	-0.00021803	0.00082111	0.75732	-98.4334	-0.0425354	-0.0313721	0.10132	0.030151	-0.031372	-0.92871	-1.0635	1.6514	1.19336	-0.733398	11.4453	0	0	0	24.78626	120.9976	144.1297	-0.940918	-0.1966553	144.1297	-45	5.75
13:10:22:74	735	26.3594	-0.65576	-0.00039244	-0.0021667	0.75488	-98.039	0.196792	0.0634766	-0.075745	-0.020187	0.063477	-0.067383	-1.4766	1.5586	1.43555	0.0997925	11.3516	0	0	0	24.78626	120.9976	144.1121	-0.9770508	-0.1958008	144.1121	-44	5.5
13:10:23:08	736	26.3594	-0.66162	-0.010201	-0.0079041	0.75	-97.1638	1.47548	0.226196	0.34473	-0.019272	0.2262	4.0938	7.9766	3.2285	-8.75	3.15234	12.7813	0	0	0	24.78626	120.9976	144.0343	-0.9291992	-0.1695557	144.0343	-47	6.25
13:10:23:41	737	26.3594	-0.6665	-0.0015726	-0.0032539	0.74561	-96.4129	0.382824	0.0234222	0.011971	-0.050995	0.023422	1.8975	2.5098	-1.1807	-2.7578	1.584	8.5938	0	0	0	24.78626	120.9976	144.005	-0.9404297	-0.1954346	144.005	-49	7
13:10:23:75	738	26.375	-0.67188	0.0003407	0.0027847	0.74072	-95.581	-0.243296	0.083252	0.17273	0.10925	0.083252	0.4729	-1.1357	0.94922	1.11914	0.638184	10.7344	0	0	0	24.78626	120.9976	143.9858	-0.9838867	-0.2077637	143.9858	-51	6.25
13:10:24:09	739	26.375	-0.68311	-0.0026684	0.0019569	0.72998	-93.7996	0.0700574	0.0536804	-0.029831	0.146	0.05368	0.20129	0.43945	-0.34277	-0.47632	0.23071	9.4453	0	0	0	24.78626	120.9976	143.9294	-0.9648438	-0.2386475	143.9294	-49	6.5
13:10:24:43	740	26.375	-0.68701	0.00065279	0.0041351	0.72656	-93.2063	-0.379934	0.0242615	0.042664	-0.15295	0.024261	-1.2676	2.0449	-1.1279	-1.9004	-1.3311	8.6875	0	0	0	24.78626	120.9976	143.9173	-1.001953	-0.2216797	143.9173	-45	6.5
13:10:24:77	741	26.3594	-0.6958	0.0016174	0.0015993	0.71826	-91.82	-0.260633	0.111389	-0.21814	0.0072937	0.11139	0.64746	1.8145	-0.7373	-1.792	0.57227	9.0625	0	0	0	24.78626	120.9976	143.868	-1.027344	-0.2595215	143.868	-49	6.5
13:10:25:10	742	26.3594	-0.70459	0.0060501	0.0068054	0.70996	-90.4357	-1.04114	0.0753174	-0.44336	-0.27393	0.075317	-3.2617	-3.4043	-0.11517	3.6289	-3.2695	9.5859	0	0	0	24.78626	120.9975	143.8401	-0.9711914	-0.2766113	143.8401	-47	6.5
13:10:25:44	743	26.3594	-0.71533	0.010368	0.006012	0.69873	-88.6505	-1.32301	0.0606995	-0.15088	-0.5542	0.060699	-0.66992	-2.8242	2.8359	3.16797	-0.838867	12.5313	0	0	0	24.78626	120.9975	143.8344	-1.025391	-0.2722168	143.8344	-50	6.75
13:10:25:78	744	26.375	-0.7373	0.0084991	0.0023346	0.67578	-85.01	-0.855121	0.220215	-0.038269	0.0021553	0.22021	-0.0048218	-0.8291	2.4004	1.00781	-0.197876	12.1719	0	0	0	24.78626	120.9975	143.8067	-1.053711	-0.354248	143.8067	-45	4.5
13:10:26:12	745	26.375	-0.7627	0.0041428	0.00017607	0.64648	-80.5703	-0.322401	0.254395	-0.0039635	0.011192	0.25439	1.333	0.90479	-0.2561	-0.61719	1.4063	9.5469	0	0	0	24.78625	120.9975	143.8149	-0.9956055	-0.4206543	143.8149	-48	6.75
13:10:26:46	746	26.375	-0.78711	0.0054436	0.001133	0.6167	-76.1556	-0.486938	0.237183	-0.16797	-0.26758	0.23718	1.042	0.76855	-1.9951	-0.40698	1.127	7.8086	0	0	0	24.78625	120.9975	143.8538	-0.9477539	-0.4694824	143.8538	-45	6
13:10:26:80	747	26.375	-0.81104	0.0058365	0.0016642	0.58545	-71.6455	-0.545919	0.252441	-0.025482	-0.010208	0.25244	-0.53809	-0.058624	-2.6797	-0.046234	-0.58447	7.1055	0	0	0	24.78625	120.9975	143.8369	-0.9379883	-0.5375977	143.8369	-49	7
13:10:27:13	748	26.375	-0.83203	0.0082321	0.0040894	0.55469	-67.376	-0.913152	0.20105	0.24414	0.11035	0.20105	-0.64014	-2.5723	1.9375	2.30078	-1.66309	11.6797	0	0	0	24.78625	120.9975	143.866	-0.8837891	-0.6113281	143.866	-50	6.5
13:10:27:47	749	26.375	-0.85254	0.0094147	0.0040588	0.52295	-63.0444	-0.96036	0.238281	-0.12274	-0.01738	0.23828	0.22339	-0.60156	0.42993	0.811035	-0.208496	10.2031	0	0	0	24.78625	120.9975	143.9115	-0.815918	-0.6269531	143.9115	-49	6.75
13:10:27:81	750	26.375	-0.87158	0.0087662	0.0014896	0.48999	-58.6836	-0.641115	0.172852	-0.1059	0.16345	0.17285	0.21606	-0.27197	1.5098	0.453369	-0.125732	11.2969	0	0	0	24.78625	120.9975	143.9193	-0.7998047	-0.6918945	143.9193	-55	6.5
13:10:28:15	751	26.375	-0.88574	0.0068436	0.0039825	0.46362	-55.2545	-0.768173	0.120728	0.48584	-0.073242	0.12073	-2.4492	-2.2598	1.6787	0.618164	-3.3418	11.4453	0	0	0	24.78625	120.9975	143.9452	-0.7700195	-0.7270508	143.9452	-49	6.75
13:10:28:48	752	26.3594	-0.89258	0.0010366	0.0043869	0.45068	-53.5811	-0.502329	0.106018	0.2583	0.15869	0.10602	0.73779	0.10541	0.91064	0.431641	0.706055	10.6953	0	0	0	24.78625	120.9975	143.9737	-0.7421875	-0.7529297	143.9737	-53	6.25
13:10:28:82	753	26.3594	-0.89795	0.0049782	0.0050278	0.43994	-52.2024	-0.768404	0.0707397	0.20483	0.42529	0.07074	0.83789	-5.0195	-3.6504	4.5352	-2.4336	6.0898	0	0	0	24.78624	120.9975	143.9528	-0.7363281	-0.8310547	143.9528	-54	6.5
13:10:29:16	754	26.3594	-0.90332	0.0049896	0.0017939	0.42871	-50.7759	-0.430898	0.0474854	-0.034821	-0.10645	0.047485	3.0684	0.41992	1.0703	1.71094	2.55664	10.8672	0	0	0	24.78624	120.9975	143.9955	-0.6943359	-0.7695313	143.9955	-50	6.5
13:10:29:50	755	26.3594	-0.90332	0.0070305	0.0025101	0.42871	-50.7743	-0.605319	0.00349236	-0.0020847	0.099426	0.0034924	-0.46289	1.2207	-1.4746	-1.1582	0.32495	8.3281	0	0	0	24.78624	120.9975	143.9877	-0.6821289	-0.7416992	143.9877	-43	6.75
13:10:29:83	756	26.3594	-0.90674	0.0062103	0.0015039	0.42163	-49.8743	-0.456331	0.0360107	0.04599	0.0024414	0.036011	0.14722	0.49219	-1.3848	-0.21387	0.34985	8.4141	0	0	0	24.78624	120.9975	144.0343	-0.6816406	-0.7314453	144.0343	-40	6.25
13:10:30:17	757	26.3594	-0.91357	0.011711	-0.0019341	0.40674	-47.9949	-0.343304	0.14563	-0.29858	-0.29126	0.14563	-2.623	-0.96924	2.4844	-0.928223	-2.91406	12.2109	0	0	0	24.78623	120.9975	144.0639	-0.6381836	-0.7089844	144.0639	-36	6.5
13:10:30:51	758	26.375	-0.92822	0.0044861	-0.0001862	0.37158	-43.6333	-0.171265	0.332764	-0.20886	0.044312	0.33276	0.65771	-0.021591	0.35889	0.518555	0.32959	10.1484	0	0	0	24.78623	120.9975	144.0602	-0.5634766	-0.7514648	144.0602	-33	6.75
13:10:30:85	759	26.375	-0.94971	0.0041008	-0.0017195	0.31274	-36.4542	0.0401731	0.412598	0.203	-0.1272	0.4126	0.58984	5.7539	0.29468	-2.91797	4.92188	10.1172	0	0	0	24.78623	120.9975	144.1207	-0.4504395	-0.7124023	144.1207	-29	6.75
13:10:31:19	760	26.375	-0.97168	0.0040169	0.0014582	0.23584	-27.2843	-0.270974	0.500977	0.0075874	0.089172	0.50098	-2.7227	-1.1572	-4.918	-1.8828	-2.3027	4.8633	0	0	0	24.78623	120.9975	144.1496	-0.3342285	-0.7324219	144.1496	-31	6.75
13:10:31:53	761	26.3906	-0.99121	0.0065308	0.00026369	0.13074	-15.0267	-0.127838	0.739746	-0.10181	0.0046997	0.73975	1.8096	1.0146	0.53125	1.51855	1.29395	10.3359	0	0	0	24.78623	120.9975	144.1381	-0.1451416	-0.6577148	144.1381	-28	6.5
13:10:31:87	762	26.3906	-1	0.0078011	-0.00056219	-0.01223	1.4008	0.075339	0.86084	0.0099487	0.025742	0.86084	0.21057	0.87109	0.32495	0.222778	0.707031	10.125	0	0	0	24.78622	120.9975	144.1397	0.01708984	-0.4887695	144.1397	-28	6.75
13:10:32:20	763	26.3906	-0.9873	0.0097427	-0.002491	-0.15918	18.3133	0.459446	0.907227	-0.13879	-0.0040894	0.90723	-0.17163	0.17688	0.34717	-0.187134	0.0225983	10.1406	0	0	0	24.78622	120.9975	144.1487	0.09747314	-0.3374023	144.1487	-25	6.25
13:10:32:54	764	26.3906	-0.95117	0.0081024	-0.0042915	-0.30835	35.9184	0.754158	0.846191	-0.00064278	-0.042908	0.84619	-0.45532	0.49609	0.1333	-0.19873	0.54395	9.9297	0	0	0	24.78622	120.9975	144.1364	0.07183838	-0.1224365	144.1364	-24	6
13:10:32:88	765	26.3906	-0.89697	0.008606	-0.0039749	-0.44141	52.3992	0.844327	0.751953	-0.020813	-0.017532	0.75195	0.16211	0.18738	0.13745	0.1026	-0.13538	9.9297	0	0	0	24.78622	120.9975	144.1739	0.02589417	-0.03497314	144.1739	-25	6.5
13:10:33:22	766	26.3906	-0.84277	0.0066605	-0.0028305	-0.53857	65.1584	0.684168	0.671387	-0.0020905	-0.040009	0.67139	0.62695	1.4873	0.20911	1.49805	-0.0358276	10.0156	0	0	0	24.78622	120.9975	144.227	0.03149414	0.00932312	144.227	-28	6.75
13:10:33:56	767	26.4063	-0.77734	0.0061035	-0.0040359	-0.62891	77.9471	0.799529	0.521973	-0.0055313	0.00048423	0.52197	-0.17932	0.38721	0.074768	0.20544	0.21118	9.8672	0	0	0	24.78622	120.9975	144.2167	-0.03051758	0.05740356	144.2167	-29	6.75
13:10:33:89	768	26.4063	-0.74707	0.0060234	-0.0042839	-0.66504	83.3493	0.825428	0.0901489	0.0073242	0.0041199	0.090149	-0.10754	0.18982	0.0021324	0.035492	0.097168	9.7969	0	0	0	24.78622	120.9975	144.2494	-0.0824585	0.1176147	144.2494	-29	6.25
13:10:34:23	769	26.4063	-0.75342	0.0061531	-0.0049896	-0.65723	82.1969	0.894539	-0.0819702	0.0030518	0.0094604	-0.08197	-0.14026	0.070984	-0.010094	-0.10162	0.12238	9.7813	0	0	0	24.78622	120.9975	144.2639	-0.09057617	0.1479492	144.2639	-29	6.75
13:10:34:57	770	26.4063	-0.75586	0.0062981	-0.0045929	-0.65479	81.8019	0.870298	0.0110703	0.00085688	0.0059509	0.01107	0.027634	0.10901	-0.002861	-0.036682	-0.045959	9.7891	0	0	0	24.78622	120.9975	144.2428	-0.0826416	0.1529541	144.2428	-29	6.5
13:10:34:91	771	26.4063	-0.75635	0.0062027	-0.0046997	-0.65381	81.6807	0.872434	-0.00537872	0.0021572	0.0055084	-0.0053787	-0.043915	0.042236	-0.0060272	-0.11328	0.018158	9.7813	0	0	0	24.78622	120.9975	144.2614	-0.09655762	0.1730957	144.2614	-29	6.25
13:10:35:25	772	26.4063	-0.75732	0.0061836	-0.0047722	-0.65332	81.5653	0.87674	-0.00495529	-0.00013888	0.0080948	-0.0049553	-0.05072	0.073059	0.013596	-0.085205	0.030228	9.8047	0	0	0	24.78622	120.9975	144.2454	-0.097229	0.1871338	144.2454	-29	6.75
13:10:35:58	773	26.4063	-0.75732	0.0061302	-0.0048256	-0.65283	81.523	0.877593	-0.00362206	-0.00079155	0.0073547	-0.0036221	-0.025696	0.050751	0.010223	-0.10364	0.0036411	9.7969	0	0	0	24.78623	120.9975	144.261	-0.1013794	0.2025146	144.261	-27	6.5
13:10:35:92	774	26.4063	-0.75781	0.0060158	-0.0048027	-0.65234	81.4441	0.866887	-0.00450134	-0.00057364	0.0063248	-0.0045013	-0.02919	0.048096	0.0057907	-0.10486	0.0081177	9.7969	0	0	0	24.78623	120.9975	144.2858	-0.105896	0.2155762	144.2858	-24	6.5
13:10:36:26	775	26.4063	-0.7583	0.005909	-0.0048218	-0.65186	81.3653	0.860408	-0.00703812	-0.00085974	0.0092468	-0.0070381	-0.033539	0.063965	0.02446	-0.089294	0.016495	9.8125	0	0	0	24.78623	120.9975	144.2669	-0.1051636	0.2241211	144.2669	-23	6
13:10:36:60	776	26.3906	-0.75879	0.0058289	-0.0048714	-0.65137	81.2865	0.85859	-0.00579453	0.0011387	0.0074272	-0.0057945	-0.023132	0.049377	-0.011208	-0.1012	0.0060883	9.7813	0	0	0	24.78623	120.9975	144.2808	-0.1098022	0.2369385	144.2808	-23	6.5
13:10:36:94	777	26.3906	-0.75879	0.0056763	-0.0048752	-0.65088	81.2441	0.847756	-0.00489044	-0.00032187	0.0082397	-0.0048904	-0.031525	0.055969	-0.013474	-0.094116	0.017502	9.7734	0	0	0	24.78623	120.9975	144.2773	-0.1116333	0.2491455	144.2773	-23	6.75
13:10:37:27	778	26.3906	-0.75928	0.0056305	-0.0049133	-0.65039	81.1653	0.847528	-0.00481415	0.00022101	0.0075531	-0.0048141	-0.036865	0.070923	0.0071678	-0.080444	0.026276	9.7969	0	0	0	24.78623	120.9975	144.2447	-0.1075439	0.2543945	144.2447	-23	6.5
13:10:37:61	779	26.3906	-0.75977	0.0055504	-0.0049248	-0.65039	81.1289	0.842202	-0.00646591	-0.0016356	0.0094681	-0.0064659	-0.015076	0.049896	0.0062828	-0.097229	0.0026073	9.7969	0	0	0	24.78623	120.9975	144.2351	-0.1092529	0.2658691	144.2351	-23	6.75
13:10:37:95	780	26.3906	-0.75977	0.0054665	-0.0049362	-0.6499	81.0865	0.837171	-0.00627518	-0.00016844	0.0084076	-0.0062752	-0.014	0.042755	0.0065269	-0.10309	0.0020046	9.7969	0	0	0	24.78623	120.9975	144.2343	-0.1118774	0.2756348	144.2343	-23	7
13:10:38:29	781	26.3906	-0.75977	0.0053444	-0.0049477	-0.6499	81.0866	0.829074	-0.00120735	0.00040364	0.0055733	-0.0012074	-0.019608	0.047363	0.0061226	-0.097778	0.010239	9.7969	0	0	0	24.78623	120.9975	144.2034	-0.1070557	0.2763672	144.2034	-23	6.5
13:10:38:63	782	26.375	-0.76025	0.0052948	-0.0050201	-0.64941	81.0077	0.831587	-0.00519943	0.00019538	0.0088577	-0.0051994	-0.021698	0.051056	0.018738	-0.095459	0.014488	9.8047	0	0	0	24.78623	120.9975	144.2034	-0.1063843	0.2861328	144.2034	-24	6.75
13:10:38:97	783	26.375	-0.76025	0.0052452	-0.0050926	-0.64941	81.0078	0.834212	-0.00465012	-0.00077581	0.0079727	-0.0046501	-0.0072899	0.04718	-0.0075569	-0.097046	0.0012245	9.7813	0	0	0	24.78623	120.9975	144.2092	-0.1044922	0.2963867	144.2092	-24	6.5
13:10:39:30	784	26.375	-0.76074	0.0051041	-0.0051155	-0.64893	80.929	0.825611	-0.00374603	-0.000772	0.0063019	-0.003746	-0.0033169	0.045502	3.15E-05	-0.096558	-0.00059557	9.7891	0	0	0	24.78623	120.9975	144.2021	-0.09381104	0.2973633	144.2021	-22	6.75
13:10:39:64	785	26.4063	-0.76074	0.0049706	-0.0051231	-0.64893	80.9291	0.816347	-0.00167561	0.00010318	0.0057106	-0.0016756	-0.018036	0.045288	0.015152	-0.097595	0.016052	9.8047	0	0	0	24.78623	120.9975	144.1989	-0.09051514	0.2973633	144.1989	-23	6.75
13:10:39:98	786	26.4063	-0.76074	0.0049095	-0.0051422	-0.64893	80.9291	0.813471	-0.00297356	0.0007	0.0058289	-0.0029736	-0.0036259	0.053497	0.0064735	-0.086609	0.0043373	9.7969	0	0	0	24.78623	120.9975	144.2021	-0.08874512	0.3015137	144.2021	-23	7
13:10:40:32	787	26.4063	-0.76074	0.0047836	-0.0051651	-0.64893	80.9292	0.806104	-0.00481796	-0.00027037	0.0072746	-0.004818	0.0065689	0.04425	-0.0041695	-0.092896	-0.0051003	9.7813	0	0	0	24.78623	120.9975	144.1521	-0.08184814	0.298584	144.1521	-23	6.75
13:10:40:66	788	26.4063	-0.76074	0.0046349	-0.0051537	-0.64893	80.9293	0.794042	-0.00218582	0.00030684	0.006012	-0.0021858	-0.0076981	0.041718	0.0053291	-0.095642	0.010727	9.7969	0	0	0	24.78623	120.9975	144.1635	-0.07727051	0.2971191	144.1635	-23	6.75
13:10:41:00	789	26.4063	-0.76074	0.0045128	-0.0051575	-0.64941	80.972	0.785051	-0.00656891	-0.00035787	0.0082932	-0.0065689	-0.015778	0.042175	0.0073891	-0.095154	0.020615	9.7969	0	0	0	24.78623	120.9975	144.1357	-0.06933594	0.2912598	144.1357	-23	6.75
13:10:41:33	790	26.3906	-0.76074	0.0044289	-0.0051765	-0.64941	80.972	0.780471	-0.00205612	0.00013959	0.0059662	-0.0020561	-0.013184	0.043304	0.01313	-0.092651	0.019745	9.8047	0	0	0	24.78623	120.9975	144.1283	-0.0637207	0.2873535	144.1283	-22	6.75
13:10:41:67	791	26.3906	-0.76074	0.0043678	-0.0052071	-0.64941	80.9721	0.77859	-0.00705719	-0.00027561	0.0092087	-0.0070572	0.0091476	0.043243	0.011154	-0.089233	-0.0010891	9.7969	0	0	0	24.78623	120.9975	144.1119	-0.05838013	0.2866211	144.1119	-23	7
13:10:42:01	792	26.3906	-0.76025	0.0041962	-0.0052032	-0.64941	81.0085	0.765767	-0.00282669	-9.27E-05	0.0061417	-0.0028267	0.0039749	0.03949	-0.0041161	-0.091003	0.0059891	9.7813	0	0	0	24.78623	120.9975	144.0584	-0.04840088	0.2770996	144.0584	-23	6.5
13:10:42:35	793	26.3906	-0.76025	0.0040512	-0.005188	-0.64941	81.0086	0.753648	-0.00238419	0.00032735	0.006218	-0.0023842	-0.0018597	0.026459	0.010017	-0.10291	0.011726	9.7969	0	0	0	24.78623	120.9975	144.051	-0.04226685	0.2766113	144.051	-23	7
13:10:42:68	794	26.3906	-0.76025	0.0039978	-0.0052299	-0.64941	81.0086	0.753329	-0.00497437	-0.00032496	0.0079269	-0.0049744	0.0045357	0.027817	0.0044289	-0.10059	0.0069122	9.7891	0	0	0	24.78623	120.9975	144.0396	-0.03622437	0.2751465	144.0396	-23	6.5
13:10:43:02	795	26.3906	-0.76025	0.0038948	-0.0052567	-0.64941	81.0087	0.747989	-0.00696182	-0.000844	0.010017	-0.0069618	0.0062904	0.032257	0.021072	-0.095398	0.0076714	9.8125	0	0	0	24.78623	120.9975	144.0252	-0.0246582	0.2709961	144.0252	-23	7.25
13:10:43:36	796	26.3906	-0.76025	0.003788	-0.0052719	-0.64941	81.0088	0.741368	-0.00355148	0.00017416	0.0058975	-0.0035515	0.018661	0.025528	-0.0014219	-0.098328	-0.0037308	9.7891	0	0	0	24.78623	120.9975	144.0535	-0.01835632	0.2687988	144.0535	-23	7.25
13:10:43:70	797	26.3906	-0.76025	0.0037022	-0.0053139	-0.64941	81.0088	0.738636	-0.00292206	-0.00026107	0.0063362	-0.0029221	0.0068092	0.029388	0.0046539	-0.096008	0.010345	9.7969	0	0	0	24.78623	120.9975	144.061	-0.01246643	0.2668457	144.061	-23	6.5
13:10:44:03	798	26.3906	-0.76025	0.0035858	-0.0053177	-0.64941	81.0089	0.730308	-0.00677109	-0.00048494	0.0093918	-0.0067711	0.016586	0.032806	0.0075684	-0.090027	0.0030212	9.7969	0	0	0	24.78623	120.9975	144.0504	-0.001056671	0.2585449	144.0504	-23	7
13:10:44:37	799	26.3906	-0.76074	0.0035152	-0.0053368	-0.64941	80.9726	0.726476	-0.00765991	-0.00041938	0.0096359	-0.0076599	0.012444	0.029984	0.0009985	-0.092773	0.0079041	9.7891	0	0	0	24.78623	120.9975	144.0561	0.007106781	0.2602539	144.0561	-23	7
13:10:44:71	800	26.3906	-0.76074	0.0034447	-0.0053406	-0.64893	80.9301	0.721824	-0.00671768	-0.00066662	0.0089264	-0.0067177	0.0064735	0.021286	0.0037174	-0.10144	0.013512	9.7891	0	0	0	24.78623	120.9975	144.054	0.01449585	0.2597656	144.054	-23	6.75
13:10:45:05	801	26.3906	-0.76074	0.0032883	-0.0053253	-0.64893	80.9301	0.708861	-0.00353622	-0.00014317	0.0066109	-0.0035362	0.0098724	0.022858	0.015778	-0.097046	0.012604	9.8047	0	0	0	24.78623	120.9975	144.0224	0.02468872	0.2462158	144.0224	-23	6.75
13:10:45:39	802	26.4219	-0.76074	0.0032635	-0.0053749	-0.64893	80.9302	0.711341	-0.00799561	-0.00046682	0.0097961	-0.0079956	0.021423	0.025635	-0.0050964	-0.092957	0.0025826	9.7813	0	0	0	24.78623	120.9975	144.0157	0.03146362	0.2454834	144.0157	-23	6.75
13:10:45:73	803	26.4219	-0.76074	0.0031834	-0.0053978	-0.64893	80.9302	0.707379	-0.00791168	-0.0011892	0.0094376	-0.0079117	0.01712	0.014114	-0.00214	-0.10437	0.0064163	9.7891	0	0	0	24.78623	120.9975	144.0342	0.03808594	0.2409668	144.0342	-23	7
13:10:46:07	804	26.4219	-0.76123	0.0030956	-0.0054283	-0.64844	80.8514	0.703567	-0.00213051	0.00057077	0.005928	-0.0021305	0.009552	0.028	0.0091934	-0.090942	0.017929	9.7969	0	0	0	24.78623	120.9975	144.0203	0.0501709	0.2336426	144.0203	-22	6.5
13:10:46:40	805	26.4063	-0.76123	0.0030537	-0.005455	-0.64844	80.8514	0.702779	-0.00287437	-0.00035024	0.0060692	-0.0028744	0.0053558	0.019867	0.0098419	-0.099548	0.021652	9.7969	0	0	0	24.78624	120.9975	144.0379	0.059021	0.2333984	144.0379	-23	6.75
13:10:46:74	806	26.4063	-0.76172	0.0029449	-0.0054321	-0.64795	80.7726	0.692766	-0.00253105	0.0008359	0.0065041	-0.0025311	0.025589	0.022293	0.001955	-0.092163	0.0035	9.7891	0	0	0	24.78623	120.9975	144.0126	0.06500244	0.2149658	144.0126	-23	6.75
13:10:47:08	807	26.4063	-0.76172	0.0028896	-0.005455	-0.64795	80.7726	0.690657	-0.00486374	-0.00046158	0.0071449	-0.0048637	0.017593	0.018799	0.0082779	-0.09668	0.011765	9.7969	0	0	0	24.78624	120.9975	144.0285	0.0723877	0.2126465	144.0285	-23	6.75
13:10:47:42	808	26.4063	-0.76172	0.0028286	-0.0054855	-0.64746	80.73	0.689066	-0.00137424	0.00041866	0.0052261	-0.0013742	0.011597	0.021347	0.015701	-0.094727	0.019501	9.8047	0	0	0	24.78624	120.9975	144.0304	0.08178711	0.2115479	144.0304	-23	6.75
13:10:47:76	809	26.4063	-0.76221	0.0027218	-0.0054893	-0.64746	80.6938	0.68127	-0.00408936	0.00014663	0.0068855	-0.0040894	0.026642	0.014381	0.0072441	-0.0979	0.0050697	9.7969	0	0	0	24.78624	120.9975	144.0152	0.09161377	0.2015381	144.0152	-23	7
13:10:48:10	810	26.4063	-0.76221	0.0026779	-0.0055199	-0.64697	80.6512	0.680962	-0.00673294	5.30E-05	0.0092773	-0.0067329	0.019455	0.016037	0.0062561	-0.097595	0.013481	9.7969	0	0	0	24.78624	120.9975	144.0441	0.09893799	0.1972656	144.0441	-23	7
13:10:48:43	811	26.4375	-0.7627	0.0026455	-0.0055618	-0.64648	80.5724	0.682309	-0.00516129	0.00017893	0.0070419	-0.0051613	0.022461	0.012093	0.003233	-0.10089	0.010826	9.7891	0	0	0	24.78624	120.9975	144.0612	0.1091919	0.1953125	144.0612	-23	7
13:10:48:77	812	26.4375	-0.76318	0.0024872	-0.0055428	-0.64648	80.5363	0.668722	-0.00208282	0.00018597	0.0050926	-0.0020828	0.020935	0.015472	0.0072823	-0.095398	0.014992	9.7969	0	0	0	24.78624	120.9975	144.0736	0.1203003	0.1856689	144.0736	-23	6.75
13:10:49:11	813	26.4375	-0.76318	0.0023727	-0.0055351	-0.646	80.4936	0.659864	-0.00536728	-0.00043797	0.0078888	-0.0053673	0.032532	0.018082	0.00041389	-0.089539	0.0054893	9.7891	0	0	0	24.78624	120.9975	144.1017	0.1306152	0.1838379	144.1017	-23	6.5
13:10:49:45	814	26.3906	-0.76367	0.0022945	-0.0055618	-0.646	80.4575	0.656231	-0.00317764	-0.00031877	0.0070724	-0.0031776	0.026947	0.019577	0.0037708	-0.088379	0.012764	9.7891	0	0	0	24.78624	120.9975	144.1255	0.1398926	0.1812744	144.1255	-23	6.75
13:10:49:78	815	26.3906	-0.76416	0.0022011	-0.005497	-0.64502	80.3359	0.644037	-0.00458145	-0.00028086	0.0077057	-0.0045815	0.035187	0.013931	0.013992	-0.090576	0.0042229	9.8047	0	0	0	24.78624	120.9975	144.1219	0.1411133	0.1646729	144.1219	-23	6.75
13:10:50:12	816	26.3906	-0.76416	0.0021191	-0.0055084	-0.64502	80.336	0.638977	-0.00534058	-0.00022888	0.0079041	-0.0053406	0.036377	0.009903	0.0026474	-0.093384	0.0036983	9.7891	0	0	0	24.78624	120.9975	144.1227	0.1463623	0.1569824	144.1227	-23	8
13:10:50:46	817	26.4063	-0.76465	0.0020924	-0.0055275	-0.64453	80.2571	0.638791	-0.00521851	-0.00076485	0.0071793	-0.0052185	0.040955	0.0044479	0.0019503	-0.097778	-0.0012197	9.7891	0	0	0	24.78624	120.9975	144.129	0.1540527	0.15271	144.129	-23	6.75
13:10:50:80	818	26.4063	-0.76514	0.0020447	-0.0055008	-0.64404	80.1783	0.633049	-0.00738144	-0.00045323	0.0091782	-0.0073814	0.029526	-0.0029278	0.0074844	-0.10626	0.0091858	9.7969	0	0	0	24.78624	120.9975	144.0955	0.157959	0.1408691	144.0955	-23	6.75
13:10:51:14	819	26.4063	-0.76563	0.0019703	-0.0054855	-0.64355	80.0995	0.626345	-0.00104141	0.0002749	0.005455	-0.0010414	0.020218	0.0036011	0.0099564	-0.099915	0.020432	9.7969	0	0	0	24.78624	120.9975	144.091	0.1638184	0.1334229	144.091	-23	7
13:10:51:48	820	26.4375	-0.76611	0.0018978	-0.0054512	-0.64307	80.0207	0.618116	-0.0052681	0.00031853	0.0079575	-0.0052681	0.027924	0.010567	0.017944	-0.090637	0.014656	9.8047	0	0	0	24.78624	120.9975	144.0843	0.1676025	0.1247559	144.0843	-23	6.75
13:10:51:82	821	26.4375	-0.76611	0.0018091	-0.0054207	-0.64258	79.9778	0.609187	-0.00800323	-0.0012541	0.0088348	-0.0080032	0.03421	-0.0044975	0.0054398	-0.10266	0.0065041	9.7969	0	0	0	24.78624	120.9975	144.0665	0.1737061	0.1137085	144.0665	-22	6.75
13:10:52:16	822	26.4375	-0.7666	0.0017252	-0.0054016	-0.64209	79.899	0.601464	-0.00245476	0.00037241	0.0059433	-0.0024548	0.026047	0.0085754	0.0089798	-0.089661	0.018005	9.7969	0	0	0	24.78624	120.9975	144.0698	0.1800537	0.1084595	144.0698	-23	7
13:10:52:49	823	26.4063	-0.76709	0.0017014	-0.0054092	-0.6416	79.8202	0.600514	-0.00305367	-0.00010169	0.005806	-0.0030537	0.025192	0.0041428	0.0023746	-0.093933	0.018402	9.7891	0	0	0	24.78624	120.9975	144.0844	0.1877441	0.1030273	144.0844	-23	6.5
13:10:52:83	824	26.4063	-0.76758	0.0016422	-0.0053711	-0.64111	79.7414	0.592951	-0.00406647	0.00035214	0.006649	-0.0040665	0.048645	0.0086365	0.0075645	-0.084106	-0.0034885	9.7969	0	0	0	24.78624	120.9975	144.0756	0.1868896	0.08990479	144.0756	-23	6.5
13:10:53:17	825	26.4219	-0.76758	0.0015907	-0.0053673	-0.64063	79.6984	0.589112	-0.00694656	-0.00099945	0.010048	-0.0069466	0.03183	0.0058403	0.0098343	-0.089539	0.013153	9.7969	0	0	0	24.78624	120.9975	144.0774	0.1953125	0.08447266	144.0774	-22	7
13:10:53:51	826	26.4219	-0.76807	0.0015306	-0.0053291	-0.64014	79.6196	0.581483	-0.00421143	0.00031614	0.0073624	-0.0042114	0.029205	-0.0040741	0.011597	-0.098145	0.014442	9.7969	0	0	0	24.78623	120.9975	144.0833	0.1956787	0.07287598	144.0833	-23	7.25
13:10:53:85	827	26.4219	-0.76855	0.0015144	-0.0053101	-0.63965	79.5408	0.578754	-0.00055933	8.79E-05	0.0051193	-0.00055933	0.031342	0.0023479	0.0071831	-0.090698	0.013412	9.7969	0	0	0	24.78623	120.9975	144.0961	0.1982422	0.06524658	144.0961	-23	6.5
13:10:54:19	828	26.4219	-0.76904	0.0014229	-0.0052795	-0.63916	79.462	0.569498	-0.00667572	-0.000772	0.0083008	-0.0066757	0.040802	-0.0060043	-0.0017815	-0.095764	0.0033932	9.7891	0	0	0	24.78623	120.9975	144.1175	0.2054443	0.059021	144.1175	-23	6.25
13:10:54:52	829	26.4219	-0.76953	0.0013933	-0.0052338	-0.63867	79.3832	0.563442	-0.00639343	-0.00021255	0.0092316	-0.0063934	0.040588	-0.0056	0.0034714	-0.094482	0.0036068	9.7891	0	0	0	24.78623	120.9975	144.1061	0.2062988	0.0491333	144.1061	-24	6.5
13:10:54:86	830	26.4219	-0.77002	0.0013762	-0.0052185	-0.63818	79.3044	0.560984	-0.00448227	0.00011367	0.0066643	-0.0044823	0.042572	-0.0088501	0.0045433	-0.096619	0.0010691	9.7969	0	0	0	24.78623	120.9975	144.1177	0.2072754	0.04159546	144.1177	-23	6.25
13:10:55:20	831	26.4063	-0.77002	0.0013371	-0.005188	-0.6377	79.2613	0.555704	-0.00484848	-0.00060701	0.0076904	-0.0048485	0.04538	-0.0087891	0.0052299	-0.095154	-0.0015669	9.7969	0	0	0	24.78623	120.9975	144.1264	0.2105713	0.034729	144.1264	-23	6.75
13:10:55:54	832	26.4063	-0.771	0.0013227	-0.005085	-0.63721	79.1468	0.54558	-0.00683212	-0.00087976	0.0087662	-0.0068321	0.031982	-0.024689	0.012054	-0.11169	0.0074234	9.7969	0	0	0	24.78623	120.9975	144.1339	0.197876	0.02255249	144.1339	-24	6.75
13:10:55:87	833	26.4063	-0.771	0.0012655	-0.0050774	-0.63672	79.1037	0.540996	-0.00474167	-0.00061083	0.0083847	-0.0047417	0.030487	-0.011711	0.0086212	-0.098267	0.012062	9.7969	0	0	0	24.78623	120.9975	144.1428	0.2060547	0.01626587	144.1428	-23	6.25
13:10:56:21	834	26.4063	-0.77148	0.0011806	-0.0050316	-0.63672	79.0681	0.530639	-0.00130653	-5.69E-05	0.0058861	-0.0013065	0.023743	-0.010719	0.016785	-0.09668	0.019653	9.8047	0	0	0	24.78623	120.9975	144.1605	0.2098389	0.01027679	144.1605	-23	6.5
13:10:56:55	835	26.4063	-0.77148	0.0011482	-0.0049973	-0.63623	79.0249	0.525504	-0.00595474	-0.00043678	0.0079269	-0.0059547	0.025681	-0.010765	0.007534	-0.09552	0.01767	9.7969	0	0	0	24.78623	120.9975	144.1652	0.2119141	0.002090454	144.1652	-23	6.25
13:10:56:89	836	26.4063	-0.77197	0.0011177	-0.0049782	-0.63574	78.9461	0.521739	-0.00762558	-0.0005908	0.0098801	-0.0076256	0.025558	-0.0095139	0.01194	-0.093933	0.018234	9.7969	0	0	0	24.78623	120.9975	144.1785	0.2163086	-0.004737854	144.1785	-23	6.75
13:10:57:23	837	26.4063	-0.77197	0.0010204	-0.0049171	-0.63574	78.9461	0.509255	-0.00442886	-0.00028229	0.0083694	-0.0044289	0.017975	-0.012146	0.016205	-0.095703	0.025909	9.8047	0	0	0	24.78623	120.9975	144.1939	0.2174072	-0.01107788	144.1939	-23	6
13:10:57:57	838	26.4063	-0.77246	0.00099754	-0.0048828	-0.63525	78.8673	0.504701	-0.00261497	0.00092411	0.005825	-0.002615	0.050781	-0.023895	0.008049	-0.099792	-0.0086288	9.7969	0	0	0	24.78623	120.9975	144.1931	0.2185059	-0.01878357	144.1931	-23	6.5
13:10:57:91	839	26.4063	-0.77246	0.0010052	-0.0048561	-0.63477	78.8241	0.503149	-0.00695419	-0.00062799	0.0085754	-0.0069542	0.032654	-0.022964	0.0037231	-0.10223	0.0086823	9.7891	0	0	0	24.78623	120.9975	144.2015	0.2178955	-0.02435303	144.2015	-23	6.25
13:10:58:25	840	26.4219	-0.77295	0.0010214	-0.0048103	-0.63477	78.7886	0.500167	-0.00660324	-0.00065279	0.0097275	-0.0066032	0.025925	-0.011063	0.014114	-0.091614	0.016785	9.8047	0	0	0	24.78623	120.9975	144.1795	0.2126465	-0.03146362	144.1795	-23	6.5
13:10:58:58	841	26.4219	-0.77295	0.0010157	-0.0047836	-0.63428	78.7453	0.497639	-0.0031414	-0.00020039	0.0068207	-0.0031414	0.0289	-0.013329	0.01062	-0.092468	0.013191	9.7969	0	0	0	24.78623	120.9975	144.1999	0.21521	-0.03674316	144.1999	-23	6.5
13:10:58:92	842	26.4219	-0.77295	0.00098419	-0.0047798	-0.63428	78.7453	0.495013	-0.00245667	-5.42E-05	0.005825	-0.0024567	0.029526	-0.013824	0.016083	-0.092346	0.012924	9.8047	0	0	0	24.78623	120.9975	144.2217	0.2229004	-0.04214478	144.2217	-23	6.75
13:10:59:26	843	26.4219	-0.77344	0.00098133	-0.0047836	-0.63428	78.7098	0.495036	-0.00728989	-0.00049782	0.0090408	-0.0072899	0.046234	-0.010094	0.0019093	-0.085571	-0.0027828	9.7891	0	0	0	24.78623	120.9975	144.236	0.2246094	-0.04541016	144.236	-24	7
13:10:59:60	844	26.4219	-0.77344	0.00097418	-0.0047798	-0.63379	78.6666	0.49443	-0.00397491	-0.0001713	0.0069389	-0.0039749	0.029053	-0.019028	0.0017624	-0.097351	0.012375	9.7891	0	0	0	24.78623	120.9975	144.2573	0.2298584	-0.0506897	144.2573	-24	6.75
13:10:59:94	845	26.4219	-0.77344	0.00092173	-0.0047493	-0.63379	78.6665	0.487916	-0.00167084	0.0004704	0.0058365	-0.0016708	0.030182	-0.018326	0.011444	-0.095337	0.011948	9.7969	0	0	0	24.78623	120.9975	144.2606	0.2349854	-0.05596924	144.2606	-23	6.75
13:11:00:27	846	26.4375	-0.77344	0.00093794	-0.0046921	-0.63379	78.6665	0.484022	-0.00200272	4.45E-05	0.0062141	-0.0020027	0.022812	-0.023224	0.0061188	-0.10089	0.017166	9.7969	0	0	0	24.78623	120.9975	144.2589	0.2266846	-0.05899048	144.2589	-23	6.5
13:11:00:61	847	26.4375	-0.77393	0.00097466	-0.0046349	-0.6333	78.5877	0.481756	-0.00608826	-0.00086689	0.0087204	-0.0060883	0.042328	-0.024002	0.0022869	-0.097595	-0.0035744	9.7891	0	0	0	24.78623	120.9975	144.2688	0.2188721	-0.06292725	144.2688	-23	6.5
13:11:00:95	848	26.4375	-0.77393	0.00097561	-0.0046349	-0.6333	78.5877	0.481825	-0.00784302	-9.08E-05	0.009346	-0.007843	0.024887	-0.022827	0.0043755	-0.099976	0.013786	9.7891	0	0	0	24.78623	120.9975	144.268	0.2197266	-0.06939697	144.268	-23	7
13:11:01:29	849	26.4219	-0.77441	0.00098991	-0.0046005	-0.63281	78.509	0.479954	-0.00126457	0.0010128	0.0056534	-0.0012646	0.025208	-0.015793	0.012901	-0.092407	0.014366	9.8047	0	0	0	24.78623	120.9975	144.2484	0.213501	-0.07330322	144.2484	-23	6.75
13:11:01:62	850	26.4219	-0.77441	0.0010281	-0.0045662	-0.63281	78.509	0.479674	-0.00224686	0.00012279	0.0059853	-0.0022469	0.028519	-0.015266	0.0052223	-0.091125	0.010078	9.7969	0	0	0	24.78623	120.9975	144.2465	0.2081299	-0.0758667	144.2465	-23	6.5
13:11:01:96	851	26.4219	-0.77441	0.0010319	-0.0045815	-0.63232	78.4656	0.481544	-0.00509644	-0.00037026	0.0090866	-0.0050964	0.02977	-0.014099	0.012672	-0.090332	0.00914	9.8047	0	0	0	24.78623	120.9975	144.2394	0.2097168	-0.08074951	144.2394	-23	6.5
13:11:02:30	852	26.4219	-0.77441	0.0011082	-0.0045624	-0.63232	78.4656	0.485381	-0.00588989	-0.00082636	0.0083618	-0.0058899	0.036743	-0.013191	0.0050125	-0.088562	0.0010386	9.7969	0	0	0	24.78623	120.9975	144.2424	0.1982422	-0.078125	144.2424	-24	6.5
13:11:02:64	853	26.4219	-0.77441	0.0011454	-0.0045204	-0.63232	78.4656	0.484352	-0.00165462	-0.00027418	0.0051231	-0.0016546	0.022491	-0.02597	0.0070152	-0.10352	0.011452	9.7969	0	0	0	24.78623	120.9975	144.2555	0.192749	-0.07794189	144.2555	-23	6.75
13:11:02:98	854	26.4219	-0.7749	0.0011282	-0.004528	-0.63232	78.4302	0.483673	-0.00576782	-6.24E-05	0.0077782	-0.0057678	0.032776	-0.017761	0.0087662	-0.093567	0.0033474	9.7969	0	0	0	24.78623	120.9975	144.2722	0.1958008	-0.08117676	144.2722	-23	6.75
13:11:03:32	855	26.4375	-0.7749	0.0011253	-0.0044937	-0.63232	78.4302	0.480418	-0.00688934	-0.00026321	0.0092392	-0.0068893	0.032257	-0.016159	0.012245	-0.091736	0.0038147	9.8047	0	0	0	24.78623	120.9975	144.2751	0.1936035	-0.08135986	144.2751	-23	6.75
13:11:03:65	856	26.4375	-0.7749	0.0011702	-0.004509	-0.63232	78.4302	0.485019	-0.00614929	-0.00067759	0.007618	-0.0061493	0.032227	-0.014893	-0.0031929	-0.090942	0.0034523	9.7891	0	0	0	24.78623	120.9975	144.2762	0.1939697	-0.08294678	144.2762	-23	6.75
13:11:03:99	857	26.4375	-0.7749	0.0011196	-0.0044708	-0.63232	78.4302	0.477972	-0.00382614	-0.00035715	0.0071373	-0.0038261	0.030914	-0.0099487	0.0041389	-0.085205	0.006073	9.7891	0	0	0	24.78623	120.9975	144.2822	0.1986084	-0.08624268	144.2822	-23	6.75
13:11:04:33	858	26.4063	-0.7749	0.0011435	-0.0044556	-0.63184	78.3868	0.478575	-0.00576782	-0.00018275	0.0085526	-0.0057678	0.015198	-0.026825	0.011009	-0.10516	0.017593	9.7969	0	0	0	24.78623	120.9975	144.2917	0.1953125	-0.08654785	144.2917	-23	7
13:11:04:67	859	26.4063	-0.7749	0.0011797	-0.0044479	-0.63184	78.3868	0.480522	-0.00749588	-0.001297	0.0097961	-0.0074959	0.031891	-0.022797	0.011597	-0.098267	0.0012484	9.7969	0	0	0	24.78623	120.9975	144.3051	0.1938477	-0.08776855	144.3051	-23	6.75
13:11:05:00	860	26.4063	-0.7749	0.0012321	-0.0044174	-0.63184	78.3868	0.481611	-0.00185776	-0.00021422	0.0052147	-0.0018578	0.027634	-0.023193	0.0023994	-0.099182	0.0042381	9.7891	0	0	0	24.78623	120.9975	144.3107	0.1881104	-0.08581543	144.3107	-23	6.25
13:11:05:34	861	26.3906	-0.7749	0.0012312	-0.0043793	-0.63184	78.3867	0.478153	-0.00400543	-0.00019372	0.0066833	-0.0040054	0.018112	-0.010201	0.0073814	-0.087952	0.015747	9.7969	0	0	0	24.78623	120.9975	144.3302	0.1864014	-0.08679199	144.3302	-23	6.75
13:11:05:68	862	26.3906	-0.7749	0.001256	-0.0043983	-0.63184	78.3867	0.481643	-0.00593948	-0.00053263	0.0076866	-0.0059395	0.025497	-0.0096436	0.0095901	-0.08667	0.0084381	9.7969	0	0	0	24.78623	120.9975	144.3463	0.1894531	-0.08917236	144.3463	-23	7
13:11:06:02	863	26.4219	-0.7749	0.0012798	-0.0043869	-0.63184	78.3867	0.482354	-0.00863647	-0.00017309	0.0097961	-0.0086365	0.025421	-0.0092773	0.012886	-0.08667	0.0081253	9.8047	0	0	0	24.78623	120.9975	144.3526	0.1882324	-0.08758545	144.3526	-23	6.5
13:11:06:36	864	26.4219	-0.77539	0.0013008	-0.0043831	-0.63184	78.3514	0.483414	-0.00431442	4.26E-05	0.0081787	-0.0043144	0.024887	-0.012459	0.0015898	-0.089844	0.0076561	9.7891	0	0	0	24.78623	120.9975	144.3541	0.1899414	-0.08850098	144.3541	-23	6.75
13:11:06:69	865	26.4219	-0.77539	0.0013504	-0.0043678	-0.63184	78.3514	0.485647	-0.0038662	-0.0007019	0.0066032	-0.0038662	0.00914	-0.02713	0.00057983	-0.1076	0.019089	9.7891	0	0	0	24.78623	120.9975	144.3515	0.1845703	-0.08691406	144.3515	-23	7
13:11:07:03	866	26.4219	-0.77539	0.0014257	-0.0043221	-0.63184	78.3513	0.487034	-0.00456619	4.11E-05	0.0061531	-0.0045662	0.01622	-0.015205	0.001441	-0.094727	0.012924	9.7891	0	0	0	24.78623	120.9975	144.361	0.1727295	-0.08300781	144.361	-23	6.75
13:11:07:37	867	26.4219	-0.77539	0.0014009	-0.004303	-0.63135	78.3079	0.483766	-0.00452042	-3.06E-05	0.0069046	-0.0045204	0.032837	-0.01918	-0.00021744	-0.094727	-0.0040703	9.7891	0	0	0	24.78623	120.9975	144.349	0.175415	-0.08520508	144.349	-23	7
13:11:07:71	868	26.4219	-0.77539	0.0014591	-0.0043259	-0.63135	78.3079	0.490009	-0.00735474	-0.00084209	0.0086212	-0.0073547	0.034485	-0.026718	0.00077248	-0.10297	-0.0079193	9.7891	0	0	0	24.78623	120.9975	144.3351	0.1778564	-0.08746338	144.3351	-23	6.75
13:11:08:05	869	26.4219	-0.77539	0.0014668	-0.0042305	-0.63184	78.3513	0.481871	-0.0041008	5.85E-05	0.0073128	-0.0041008	0.019592	-0.018219	-0.0022488	-0.096191	0.0072136	9.7891	0	0	0	24.78623	120.9975	144.3334	0.1638184	-0.08001709	144.3334	-23	6.75
13:11:08:39	870	26.4219	-0.77539	0.0014858	-0.0041924	-0.63184	78.3512	0.479864	-0.00666428	-7.38E-05	0.0098648	-0.0066643	0.014862	-0.0083466	0.011795	-0.087524	0.013123	9.7969	0	0	0	24.78623	120.9975	144.3156	0.1602783	-0.08087158	144.3156	-23	6.75
13:11:08:73	871	26.4219	-0.77539	0.0015326	-0.0042152	-0.63135	78.3079	0.485492	-0.00740051	5.15E-05	0.010559	-0.0074005	0.016174	-0.015854	0.0092545	-0.095581	0.0098801	9.7969	0	0	0	24.78623	120.9975	144.3135	0.1582031	-0.08190918	144.3135	-22	6.5
13:11:09:07	872	26.4063	-0.77539	0.001564	-0.0042038	-0.63135	78.3079	0.486752	-0.00243759	0.00021577	0.0056305	-0.0024376	0.027435	-0.026016	-0.00060558	-0.10291	-0.003809	9.7891	0	0	0	24.78623	120.9975	144.3102	0.1599121	-0.08087158	144.3102	-23	7
13:11:09:41	873	26.4063	-0.77539	0.0016155	-0.0042419	-0.63135	78.3079	0.493869	-0.00515747	-0.00045729	0.0080032	-0.0051575	0.015526	-0.0099258	0.0028019	-0.091003	0.010719	9.7891	0	0	0	24.78623	120.9975	144.3134	0.1645508	-0.08233643	144.3134	-23	6.75
13:11:09:74	874	26.4063	-0.77539	0.0015945	-0.0042152	-0.63135	78.3078	0.489977	-0.00455475	-0.00051928	0.0067749	-0.0045547	0.010048	-0.024216	0.0033607	-0.10535	0.013153	9.7891	0	0	0	24.78623	120.9975	144.3187	0.1658936	-0.08300781	144.3187	-23	6.25
13:11:10:08	875	26.4219	-0.77539	0.0016861	-0.0041924	-0.63135	78.3078	0.494568	-0.00376511	-0.00016999	0.006382	-0.0037651	0.021072	-0.010658	0.0054054	-0.090576	0.0034943	9.7969	0	0	0	24.78623	120.9975	144.3194	0.1535645	-0.07843018	144.3194	-23	6.5
13:11:10:42	876	26.4219	-0.77539	0.0016966	-0.0041962	-0.63135	78.3078	0.495666	-0.00251961	0.0010147	0.0061264	-0.0025196	0.019897	-0.013794	1.05E-05	-0.094055	0.003994	9.7891	0	0	0	24.78623	120.9975	144.3245	0.154541	-0.08044434	144.3245	-23	7
13:11:10:76	877	26.4219	-0.77539	0.0017147	-0.0041351	-0.63135	78.3078	0.491553	-0.00808716	-0.00029254	0.010483	-0.0080872	0.010529	-0.013992	0.005455	-0.095886	0.011978	9.7969	0	0	0	24.78623	120.9975	144.3283	0.1455078	-0.0758667	144.3283	-23	6.5
13:11:11:09	878	26.4063	-0.77539	0.0017233	-0.0041199	-0.63135	78.3078	0.490818	-0.0064621	-0.0011234	0.0085144	-0.0064621	0.011559	-0.028732	-0.0001049	-0.10974	0.0075111	9.7891	0	0	0	24.78623	120.9975	144.33	0.1447754	-0.07922363	144.33	-23	6.25
13:11:11:43	879	26.4063	-0.77539	0.0017471	-0.0040932	-0.63135	78.3078	0.490171	-0.00101185	0.00039673	0.0044708	-0.0010118	0.007988	-0.030975	-0.0037537	-0.11206	0.010017	9.7813	0	0	0	24.78623	120.9975	144.3247	0.1397705	-0.07824707	144.3247	-23	6.75
13:11:11:77	880	26.4063	-0.77539	0.0018139	-0.0040703	-0.63135	78.3077	0.492967	-0.0022831	-0.00029445	0.0061646	-0.0022831	0.012665	-0.020111	0.0064163	-0.10126	0.0063133	9.7969	0	0	0	24.78623	120.9975	144.3264	0.1298828	-0.07318115	144.3264	-23	6.75
13:11:12:11	881	26.4219	-0.77539	0.0018167	-0.0040665	-0.63135	78.3077	0.492835	-0.00745392	-0.00083017	0.0099106	-0.0074539	0.0035915	-0.011246	0.00063992	-0.094666	0.0168	9.7891	0	0	0	24.78623	120.9975	144.3296	0.1291504	-0.07543945	144.3296	-23	7.25
13:11:12:45	882	26.4219	-0.77588	0.0018406	-0.004055	-0.63086	78.229	0.493598	-0.00432205	-0.00053883	0.0069542	-0.0043221	0.01059	-0.0070724	0.014999	-0.089172	0.010353	9.8047	0	0	0	24.78623	120.9975	144.3168	0.1280518	-0.07727051	144.3168	-23	7
13:11:12:78	883	26.4219	-0.77588	0.0018787	-0.0040169	-0.63135	78.2724	0.492765	-0.00169563	0.00076056	0.0058174	-0.0016956	0.015747	-0.008049	0.006588	-0.088806	0.0041809	9.7969	0	0	0	24.78623	120.9975	144.3173	0.1217041	-0.07348633	144.3173	-23	7.25
13:11:13:12	884	26.4219	-0.77588	0.0018806	-0.0040245	-0.63086	78.229	0.49378	-0.00609589	-0.00065231	0.0080109	-0.0060959	0.013725	-0.020081	-0.0010662	-0.10126	0.003582	9.7891	0	0	0	24.78623	120.9975	144.3095	0.1212158	-0.07434082	144.3095	-23	6.75
13:11:13:46	885	26.4219	-0.77588	0.0018816	-0.0040092	-0.63086	78.229	0.492492	-0.0061264	-0.00083017	0.0085907	-0.0061264	-0.002243	-0.019058	0.0083771	-0.10339	0.019226	9.7969	0	0	0	24.78623	120.9975	144.3057	0.1195679	-0.07366943	144.3057	-23	6.5
13:11:13:80	886	26.4219	-0.77588	0.0019083	-0.0040054	-0.63086	78.2289	0.494083	-0.00634384	-0.0016699	0.0088654	-0.0063438	0.0033169	-0.018814	0.019363	-0.10248	0.013344	9.8047	0	0	0	24.78623	120.9975	144.3062	0.1170654	-0.07128906	144.3062	-22	7.25
