UTC,Pack_count,IMUTemp,q0,q1,q2,q3,Roll,Pitch,Yaw,RollRate,PitchRate,YawRate,AccX,AccY,AccZ,RealAccX,RealAccY,RealAccZ,PosX,PosY,PosZ,Long,Lat,Height,VelX,VelY,VelZ,RSSI,SNR,
22:23:16:21,6041,24.8594,0.99983  0.00021612 -0.00042157   -0.018472,0.025654   -0.047842     -2.1169,-0.0021152   0.0096054   -0.010834,-0.016571    0.001318   0.0084686,-0.0082397   0.0051041      9.7969,0  0  0,24.78574      120.9973      140.3076,-0.07330322  -0.009048462      140.3076,-30,6,
22:23:16:55,6042,24.8906,0.99983  0.00020571 -0.00036445   -0.018507,0.024341   -0.041319     -2.1209,-0.0032654    0.014435   -0.019257,-0.013023  -0.0044403   0.0019341,-0.0060844 -0.00086117      9.7891,0  0  0,24.78574      120.9973      140.2675,-0.07495117  -0.009666443      140.2675,-31,6,
22:23:16:89,6043,24.8906,0.99983  0.00021465 -0.00035451   -0.018462,0.025343   -0.040163     -2.1158,-0.0023499    0.012917   -0.015869,-0.017593  -0.0038757   0.0080643,-0.010719 -0.00020015      9.7969,0  0  0,24.78574      120.9973       140.215,-0.07824707  -0.009063721       140.215,-31,7,
22:23:17:23,6044,24.8906,0.99983  0.00019955 -0.00030738   -0.018462,0.023513   -0.034794     -2.1157,-0.0016861   0.0099487   -0.012047,-0.026489 -0.00058746    0.001935,-0.020355   0.0025082      9.7891,0  0  0,24.78574      120.9973      140.1418,-0.07562256  -0.007949829      140.1418,-31,6.5,
22:23:17:57,6045,24.8906,0.99983  0.00020828 -0.00029098   -0.018379,0.024476   -0.032899     -2.1063,-0.0027447    0.013763     -0.0177,-0.022736  -0.0039902   -0.002449,-0.017181 -0.00069523      9.7891,0  0  0,24.78574      120.9973      140.0842,-0.07672119   -0.00831604      140.0842,-30,6,
22:23:17:91,6046,24.8906,0.99983   0.0001849 -0.00022953   -0.018381,0.021668   -0.025908     -2.1065,-0.0023785    0.011742   -0.015022,-0.01487  -0.0035992  -0.0045509,-0.01033 -0.00045753      9.7813,0  0  0,24.78574      120.9973      140.0336,-0.07763672  -0.009216309      140.0336,-30,5.75,
22:23:18:25,6047,24.8906,0.99983  0.00020819  -0.0001739   -0.018384,0.024219   -0.019485     -2.1068,-0.0019178    0.010513   -0.012939,-0.011993    -0.00177    0.005352,-0.0084915   0.0019627      9.7969,0  0  0,24.78574      120.9973      139.9594,-0.07568359  -0.009223938      139.9594,-30,6,
22:23:18:58,6048,24.8906,0.99983  0.00020335 -0.00014852   -0.018337,0.023611   -0.016589     -2.1013,-0.0018883   0.0096741   -0.011215,-0.014763  -0.0045624   0.0054169,-0.011574  -0.0010281      9.7969,0  0  0,24.78574      120.9973      139.9069,-0.07806396   -0.01005554      139.9069,-32,6.5,
22:23:18:92,6049,24.8906,0.99983  0.00019474 -0.00011346   -0.018359,0.02255    -0.01259     -2.1039,-0.0017776    0.009758   -0.012054,-0.0037098  -0.0038357   0.0046616,-0.0012512 -6.8665e-05      9.7969,0  0  0,24.78574      120.9973      139.8686,-0.07836914  -0.009941101      139.8686,-33,6.5,
22:23:19:26,6050,24.8906,0.99983  0.00018808 -4.2469e-05   -0.018381,0.021638  -0.0044696     -2.1064,-0.0036087    0.013885    -0.01825,0.0015097    0.004921  -0.0016899,0.001852   0.0085373      9.7891,0  0  0,24.78573      120.9973      139.8121,-0.07202148   -0.00844574      139.8121,-34,6.25,
22:23:19:60,6051,24.8906,0.99983  0.00018689   2.759e-05   -0.018396,0.021354    0.003555     -2.1081,-0.0016642    0.010719   -0.013428,-0.0020866   0.0018206   0.0027714,-0.0026894   0.0054474      9.7891,0  0  0,24.78573      120.9973      139.7695,-0.06268311  -0.007972717      139.7695,-30,6.5,
22:23:19:94,6052,24.8906,0.99983  0.00018587  6.3317e-06   -0.018365,0.021282   0.0011166     -2.1046,-0.0028877    0.014168   -0.016754,0.0071678   0.0061798  0.00095463,0.0064812     0.01001      9.7891,0  0  0,24.78573      120.9973      139.7072,-0.05877686  -0.004924774      139.7072,-32,5.75,
22:23:20:28,6053,24.8906,0.99983  0.00019135 -5.8371e-06   -0.018366,0.021935 -0.00026605     -2.1047,-0.0022545    0.010117   -0.011124,-0.0059891   0.0026741     0.00494,-0.005909   0.0061989      9.7969,0  0  0,24.78573      120.9973      139.6674,-0.05822754  -0.004127502      139.6674,-38,6,
22:23:20:62,6054,24.8906,0.99983  0.00022033 -9.0211e-06   -0.018368,0.025263 -0.00056982     -2.1049,-0.0021591    0.012817   -0.016724,0.00083399  -0.0058441   0.0017042,0.0010099  -0.0014849      9.7891,0  0  0,24.78573      120.9973      139.6284,-0.05630493  -0.006233215      139.6284,-33,6,
22:23:20:96,6055,24.8906,0.99983  0.00023055 -4.7778e-05   -0.018304,0.026515  -0.0049905     -2.0976,-0.0020409    0.010925    -0.01255,-0.009903   0.0017719   0.0013704,-0.0090637   0.0059586      9.7891,0  0  0,24.78573      120.9973      139.5853,-0.05245972   -0.00712204      139.5853,-32,6.5,
22:23:21:30,6056,24.8906,0.99983  0.00022513 -4.6914e-06   -0.018337,0.025804 -6.4456e-05     -2.1013,-0.0016365    0.010536    -0.01265,-0.0055885  -0.0046921   -0.002306,-0.0053139 -0.00042892      9.7891,0  0  0,24.78573      120.9973      139.5702,-0.0479126   -0.00579834      139.5702,-33,6.25,
22:23:21:64,6057,24.8906,0.99983  0.00024157 -8.9653e-05   -0.018198,0.027864   -0.009768     -2.0854,-0.0029392    0.010536   -0.014511,-0.0056305  -0.0085373 -0.00027275,-0.003561  -0.0040436      9.7891,0  0  0,24.78573      120.9973      139.5835,-0.04669189  -0.007434845      139.5835,-33,6.25,
22:23:21:98,6058,24.8906,0.99983  0.00012798 -6.6787e-05   -0.018298,0.014803  -0.0073836     -2.0969,-0.0091858   0.0078354   -0.017014,0.032227    -0.11273  -0.0056152,0.037933    -0.10962      9.7813,0  0  0,24.78573      120.9973      139.5443,-0.04641724  -0.009246826      139.5443,-34,4.25,
22:23:22:32,6059,24.9219,0.99984  1.3281e-06 -0.00012482   -0.017809,0.0004069   -0.014298     -2.0409,-0.00050735       0.013   -0.020554,0.020096   -0.044403   -0.013206,0.023956   -0.043427      9.7734,0  0  0,24.78573      120.9973      139.5392,-0.04684448   -0.00611496      139.5392,-33,5.5,
22:23:22:66,6060,24.9219,0.99983  0.00024014  -1.781e-05   -0.018257,0.02755  -0.0015382     -2.0922,-0.0024948    0.012047   -0.014297,-0.013351    -0.20862   -0.014946,-0.0055237    -0.20422      9.7734,0  0  0,24.78573      120.9973      139.5119,-0.05029297  -0.007408142      139.5119,-33,6.25,
22:23:23:00,6061,24.9219,0.99984  0.00018167 -2.0918e-05   -0.018157,0.020858  -0.0020186     -2.0808,-0.0040627    0.010834   -0.011047,-0.012917    0.028671  8.4877e-05,-0.01355    0.031586      9.7891,0  0  0,24.78573      120.9973      139.4907,-0.05093384  -0.009620667      139.4907,-35,6.5,
22:23:23:34,6062,24.9531,0.99984  0.00022514 -2.1657e-05    -0.01813,0.02584  -0.0020136     -2.0776,-0.0018482    0.011536   -0.011589,-0.028717    0.071411  -0.0011587,-0.030945    0.074768      9.7891,0  0  0,24.78573      120.9973      139.4915,-0.05368042  -0.005748749      139.4915,-37,5.75,
22:23:23:68,6063,24.9531,0.99984  0.00026444 -3.0777e-05   -0.018128,0.030362  -0.0029769     -2.0775,-0.0019217    0.010475   -0.012688,-0.020905    0.034973  -0.0035114,-0.021561    0.039398      9.7891,0  0  0,24.78573      120.9973      139.5026,-0.05645752  -0.007469177      139.5026,-37,6.5,
22:23:24:02,6064,24.9531,0.99983  0.00024696  -5.272e-05   -0.018168,0.028404  -0.0055262      -2.082,-0.0031204    0.012665   -0.016541,-0.0084686   -0.018402   0.0088806,-0.0069695   -0.013924      9.7969,0  0  0,24.78573      120.9973      139.4901,-0.05886841  -0.007556915      139.4901,-39,6.5,
22:23:24:37,6065,24.9531,0.99983  0.00028151  3.0091e-06   -0.018383,0.032247  0.00093777     -2.1066,-0.0019197   0.0093231   -0.013313,-0.014557  -0.0093689   0.0079422,-0.01416  -0.0043526      9.7969,0  0  0,24.78573      120.9973      139.4992,-0.06228638  -0.007442474      139.4992,-34,6.5,
22:23:24:71,6066,24.9531,0.99983  0.00020603  3.4155e-05   -0.018324,0.023534   0.0043459     -2.0999,-0.003273    0.014694   -0.018448,-0.01709     0.00914  -0.0017986,-0.018478    0.012428      9.7891,0  0  0,24.78573      120.9973      139.4826,-0.06213379  -0.005882263      139.4826,-34,6.25,
22:23:25:05,6067,24.9531,0.99983 -0.00027254 -2.9276e-05   -0.018277,-0.031165   -0.003925     -2.0945,-0.0048332    0.012527   -0.021072,-0.050964   -0.039215    0.042786,-0.04892   -0.046661      9.8281,0  0  0,24.78573      120.9973      139.4876,-0.06518555   -0.01094055      139.4876,-32,6,
22:23:25:39,6068,24.9688,0.99982 -0.00092345 -3.9286e-06   -0.018694,-0.10579  -0.0024283     -2.1423,-0.010368     0.01281   -0.024704,-0.019165    -0.11426    0.019058,-0.014587    -0.13379      9.8047,0  0  0,24.78573      120.9973      139.4978,-0.06433105   -0.01878357      139.4978,-33,6.75,
22:23:25:73,6069,24.9688,0.99984  -0.0026183  -0.0002908    -0.01774,-0.2994   -0.038641     -2.0328,-0.012489     0.01075  -0.0042305,0.1145    -0.60059     0.10352,0.14233    -0.64893      9.8906,0  0  0,24.78573      120.9973      139.4688,-0.06173706    -0.1074829      139.4688,-32,7,
22:23:26:07,6070,24.9688,0.99988  -0.0025088  0.00043192   -0.014982,-0.28819    0.045181      -1.717,0.002121    0.020889     0.07843,-0.11896    -0.17188     0.37183,-0.122986    -0.225952      10.1563,0  0  0,24.78573      120.9973      139.5021,-0.06903076    -0.2976074      139.5021,-29,6.25,
22:23:26:41,6071,24.9688,1  -0.0022092  0.00079226   0.0016435,-0.25301    0.091202     0.18813,-0.0036907     0.12073     0.01944,-0.42407     0.17236    -0.26147,-0.44922     0.13171      9.5234,0  0  0,24.78573      120.9973      139.5178,-0.04779053    -0.4470215      139.5178,-28,6.25,
22:23:26:75,6072,24.9688,0.99997  -0.0012194  -0.0002502   0.0082537,-0.13997   -0.027516     0.94585,-0.018997    0.038788   -0.011581,0.022781    -0.20886     0.68506,0.0214844    -0.236572      10.4766,0  0  0,24.78574      120.9973      139.4868,-0.01829529    -0.4946289      139.4868,-29,6.25,
22:23:27:08,6073,24.9688,0.99998  -0.0014401  0.00035219   0.0068897,-0.16474    0.041494     0.78945,-0.018188     0.05368   -0.032196,-1.0615    -0.38745     0.73242,-1.0791    -0.405029      10.5156,0  0  0,24.78574      120.9973      139.4964,-0.0112915    -0.4970703      139.4964,-29,6.25,
22:23:27:42,6074,25,0.99998 -0.00040919   -0.001228   0.0063711,-0.047785    -0.14042     0.73014,-0.016754      0.1593   -0.012642,0.74512     -0.3313     0.37598,0.750488     -0.35083      10.1641,0  0  0,24.78574      120.9973      139.5269,0.01387787    -0.5297852      139.5269,-32,6.75,
22:23:27:76,6075,25,0.99993  -0.0016792 -0.00080242    0.011346,-0.19346   -0.089761      1.3004,-0.015701    0.026886    0.037781,0.4397   -0.051208      0.5874,0.453125   -0.0978394       10.375,0  0  0,24.78574      120.9973      139.4992,0.03479004       -0.5625      139.4992,-34,6,
22:23:28:10,6076,25,0.99974  -0.0027286  0.00021306    0.022755,-0.31203    0.031523      2.6077,-0.054779   -0.021286    0.022446,0.50391     0.37866     0.26538,0.518555     0.294922      10.0547,0  0  0,24.78574      120.9973      139.5038,0.04751587    -0.5336914      139.5038,-38,6,
22:23:28:44,6077,25,0.99945  -0.0034315  0.00038328    0.033068,-0.39156      0.0569      3.7898,-0.017807   -0.019882    0.058899,-0.039368     0.26392     0.21118,-0.0285187     0.195923           10,0  0  0,24.78574      120.9973      139.4893,0.07458496    -0.5375977      139.4893,-39,6,
22:23:28:78,6078,25,0.99891   -0.002575 -6.8551e-05    0.046664,-0.29512   0.0059224      5.3493,0.00099468    0.035278     0.07666,-0.13574    -0.13208   -0.032532,-0.151    -0.16858      9.7578,0  0  0,24.78575      120.9973      139.5038,0.100708    -0.5532227      139.5038,-37,6.25,
22:23:29:12,6079,25,0.99827  -0.0023487   0.0013276     0.05882,-0.25973      0.1677      6.7438,0.02739    -0.13306    0.040009,0.54932     -1.6035      1.6875,0.339355     -1.70508      11.4688,0  0  0,24.78575      120.9973      139.5481,0.123291    -0.5634766      139.5481,-37,6.25,
22:23:29:46,6080,25.0313,0.99799  -0.0015897   0.0034854    0.063327,-0.15651     0.41014       7.261,-0.007843    0.050537   -0.028427,-0.22437     0.12469     0.19727,-0.28223     0.12415      9.9844,0  0  0,24.78575      120.9973      139.5246,0.1524658    -0.5390625      139.5246,-40,6,
22:23:29:80,6081,25.0313,0.99826  -0.0021704   0.0026814    0.058795,-0.23022     0.32135      6.7407,-0.0039673    0.032562   -0.034546,-0.12122      0.3584     -0.5459,-0.13208     0.33301      9.2422,0  0  0,24.78575      120.9973      139.5042,0.1564941    -0.5415039      139.5042,-41,5.5,
22:23:30:14,6082,25.0313,0.9985  -0.0029654   0.0052167    0.054345,-0.30683     0.61537       6.229,-0.01709     0.18481   -0.066956,0.29077     0.66504     -2.7305,0.27271     0.59082      7.0664,0  0  0,24.78575      120.9973      139.4656,0.1563721    -0.5288086      139.4656,-39,6,
22:23:30:48,6083,25.0156,0.99882  -0.0027338   0.0020282    0.048434,-0.30165     0.24731      5.5517,0.00062084   0.0075531   -0.049103,0.3938   -0.034119      0.2052,0.34595    -0.12427      9.9922,0  0  0,24.78575      120.9973      139.4309,0.1621094    -0.4916992      139.4309,-43,3,
22:23:30:82,6084,25.0156,0.99905  -0.0022567   0.0020869    0.043486,-0.24796     0.25016      4.9842,0.02829    0.031082   -0.019562,-1.042     -0.3374    -0.28882,-1.1113    -0.28394      9.4922,0  0  0,24.78576      120.9973      139.4313,0.1556396    -0.5146484      139.4313,-42,6.5,
22:23:31:16,6085,25.0313,0.99898  -0.0018016  -0.0010298    0.044997,-0.21155     -0.1086      5.1583,0.03714      0.1145    0.061707,2.2344    -0.45068    -0.17078,2.1914    -0.68311      9.6172,0  0  0,24.78576      120.9973      139.3923,0.1843262    -0.4973145      139.3923,-44,5.5,
22:23:31:50,6086,25.0313,0.99883  -0.0027299   0.0024708    0.048137,-0.29883     0.29786      5.5175,-0.0071754     0.12793   -0.022552,-0.17676  -0.0020885     0.71338,-0.243042   -0.0404053         10.5,0  0  0,24.78576      120.9973        139.37,0.1734619    -0.4924316        139.37,-50,6,
22:23:31:84,6087,25.0313,0.99904   -0.003653   0.0026186    0.043618,-0.40512     0.31804      4.9987,0.0077858    0.099915    -0.05014,-0.46826    -0.14331    -0.53125,-0.53857    -0.16675        9.25,0  0  0,24.78576      120.9973      139.3645,0.1651611    -0.4655762      139.3645,-47,7,
22:23:32:18,6088,25.0156,0.99951  -0.0043287   0.0045485    0.030546,-0.4799     0.53613      3.4987,-0.16406     0.35303    -0.23987,0.38208      3.9961     0.87891,0.47998      3.85938      10.7109,0  0  0,24.78576      120.9973      139.3426,0.1809082     -0.451416      139.3426,-46,6,
22:23:32:52,6089,25.0156,0.99999  -0.0033095   0.0016733   0.0017539,-0.3789     0.19241     0.20035,0.015961   -0.017319    -0.17285,0.41064    -0.21985     0.40869,0.378906    -0.286377      10.1953,0  0  0,24.78576      120.9973       139.295,0.1483154    -0.5112305       139.295,-47,7,
22:23:32:87,6090,25.0156,0.99971  -0.0014513   0.0022204   -0.023976,-0.17236     0.25038     -2.7481,0.024963    0.044952    -0.14197,-0.01236    0.051392     0.39526,-0.0627441    0.0227966      10.1875,0  0  0,24.78576      120.9973      139.2979,0.1152344    -0.5595703      139.2979,-45,5.5,
22:23:33:21,6091,25.0469,0.99942  -0.0012573   0.0032177   -0.033794,-0.15646     0.36364     -3.8737,-0.00081825   -0.013069  -0.0080338,-1.1133    -0.30029    -0.18115,-1.1484    -0.40063      9.6016,0  0  0,24.78576      120.9973      139.2903,0.1134033    -0.5556641      139.2903,-47,6.75,
22:23:33:55,6092,25.0469,0.99945   -0.001442   -0.001849   -0.033191,-0.15812    -0.21725     -3.8038,0.020737     0.44116   -0.055084,2.9414       1.335     0.38452,2.83984      1.50293      10.1797,0  0  0,24.78577      120.9973      139.2941,0.1618652    -0.5766602      139.2941,-49,6,
22:23:33:89,6093,25.0469,0.99955  -0.0032921   0.0012198   -0.029641,-0.38123     0.12853     -3.3976,-0.010201   -0.076904   -0.011559,0.38477    -0.89307      2.2832,0.420654    -0.950195      12.0625,0  0  0,24.78577      120.9973      139.2955,0.1463623    -0.5458984      139.2955,-51,6,
22:23:34:23,6094,25.0156,0.99979  -0.0015674   0.0021163   -0.020323,-0.18451     0.23881     -2.3294,0.043945    0.018845    0.053589,0.34131    -0.56201     0.28101,0.320801    -0.575684      10.0703,0  0  0,24.78577      120.9973      139.3153,0.177124    -0.5600586      139.3153,-50,6.5,
22:23:34:57,6095,25.0156,0.99981 -0.00074142   0.0043318    -0.01877,-0.094265      0.4947     -2.1514,-0.022598    0.099426   -0.022873,0.14063    -0.57471     0.23853,0.0666504    -0.587402      10.0313,0  0  0,24.78577      120.9973      139.3566,0.1875    -0.5874023      139.3566,-49,6,
22:23:34:91,6096,25.0156,0.99981   0.0002545   0.0013625   -0.019379,0.026132     0.15666     -2.2208,-0.01619    -0.09729  -0.0054932,-0.49023    -0.49512     -1.4434,-0.48438    -0.51123      8.3438,0  0  0,24.78577      120.9973      139.4143,0.1794434    -0.6137695      139.4143,-48,6.25,
22:23:35:25,6097,25,0.99977  -0.0017248   0.0035761   -0.021193,-0.2063     0.40551     -2.4295,-0.13611     0.37476   -0.084778,-2.125       1.875      2.3887,-2.33398      1.72168      12.1641,0  0  0,24.78578      120.9973      139.4638,0.1959229     -0.637207      139.4638,-48,6.25,
22:23:35:58,6098,25,0.99995 -0.00075669   0.0011195  -0.0099629,-0.087984     0.12742     -1.1418,-0.034454     0.38525    0.058075,2.207     0.53662      4.4922,2.11133     0.552246      14.2969,0  0  0,24.78578      120.9973      139.5198,0.2304688    -0.6616211      139.5198,-46,6.75,
22:23:35:92,6099,25,0.99998  -0.0018856   0.0030387  -0.0057895,-0.21809     0.34696    -0.66409,-0.030319    0.052704    0.027359,-1.2295     0.87549     -3.3008,-1.2803     0.83545      6.4844,0  0  0,24.78578      120.9973      139.5869,0.2200928    -0.6635742      139.5869,-47,6.75,
22:23:36:26,6100,25.0313,0.99997   -0.002333   0.0020437  -0.0064186,-0.26884     0.23247    -0.73607,-0.016556    0.050781   -0.019852,-1.1338     0.69092     -1.9883,-1.1777     0.63818      7.7969,0  0  0,24.78578      120.9973      139.6501,0.2521973    -0.6679688      139.6501,-49,7,
22:23:36:60,6101,25.0313,0.99998  -0.0015056  -0.0010743  -0.0067226,-0.17169    -0.12426    -0.77017,-0.26978   -0.079163   -0.076538,-0.48486      3.2109     -1.6787,-0.50488      3.1582      8.1328,0  0  0,24.78579      120.9973      139.6904,0.2668457     -0.581543      139.6904,-47,6.5,
22:23:36:94,6102,25.0313,0.99996  -0.0022676  0.00097419  -0.0084138,-0.26078     0.10944    -0.96441,0.011116      0.1626   -0.019562,0.72021    -0.63379    -0.70459,0.7002    -0.66162      9.0859,0  0  0,24.78579      120.9973      139.6999,0.2824707    -0.6098633      139.6999,-50,6.5,
22:23:37:28,6103,25.0313,0.99995  -0.0061732  -0.0060293  -0.0040814,-0.70461    -0.69378    -0.46345,0.1958    0.040833    0.012794,1.3965     -1.0361     0.50635,1.52637     -1.13086      10.2656,0  0  0,24.78579      120.9973      139.7034,0.2797852    -0.6049805      139.7034,-51,6.75,
22:23:37:62,6104,25.0313,0.99999  -0.0047229  -0.0016879  -0.0022037,-0.54078    -0.19461    -0.25161,0.0072861    0.028061  -0.0075798,-0.12952     0.35669    -0.25684,-0.10028     0.26709      9.5391,0  0  0,24.78579      120.9973      139.7456,0.2946777    -0.6191406      139.7456,-50,6,
22:23:37:96,6105,25.0313,1  -0.0017622  -0.0016573   0.0013034,-0.20218    -0.18965     0.14969,0.022141   -0.088318   -0.011505,1.5117     -1.2539   -0.099976,1.5508       -1.29      9.6797,0  0  0,24.7858      120.9973       139.831,0.3166504    -0.4682617       139.831,-51,6,
22:23:38:30,6106,25,0.99999  -0.0030942  -0.0030535  -0.0022723,-0.35378    -0.35071    -0.25931,-0.059235    0.018082    0.010086,0.71143      1.3418    -0.38599,0.76221      1.2813      9.4063,0  0  0,24.7858      120.9973      139.9353,0.310791    -0.5131836      139.9353,-52,6.5,
22:23:38:64,6107,25,0.99999  -0.0033022  -0.0012416  -0.0028658,-0.37799    -0.14336    -0.32793,0.023773    0.040222   -0.010269,-0.24951    -0.39502     -1.0449,-0.22791    -0.45166      8.7422,0  0  0,24.7858      120.9973      140.0304,0.3093262    -0.5014648      140.0304,-54,6.5,
22:23:38:98,6108,25,0.99998  -0.0043988 -0.00077373  -0.0052415,-0.50359   -0.091303    -0.60024,-0.0056305   0.0063896   -0.040192,-0.65967   0.0099182    -0.27197,-0.64404   -0.081177      9.5156,0  0  0,24.7858      120.9973      140.1212,0.2858887     -0.473877      140.1212,-54,6.5,
22:23:39:33,6109,25.0156,0.99997  -0.0047088   0.0015267  -0.0055589,-0.54056     0.17194    -0.63783,0.063049    0.023865    0.010101,-2.1602    -0.60693     -1.4258,-2.1797    -0.70361      8.3516,0  0  0,24.7858      120.9973      140.1681,0.2814941    -0.5126953      140.1681,-55,6,
22:23:39:67,6110,25.0156,0.99997   -0.003791 -0.00043959  -0.0067896,-0.43406   -0.053321    -0.77784,0.097656     0.39795   -0.043427,-0.59375     -3.9609     -5.2773,-0.55176      -3.998      4.4805,0  0  0,24.7858      120.9973      140.2142,0.2949219    -0.5249023      140.2142,-57,6.75,
22:23:40:01,6111,25.0156,0.99994  -0.0020172  -0.0031263   -0.010215,-0.22748     -0.3606     -1.1699,-0.021027    0.091125  -0.0074806,-0.47485      1.5439       1.832,-0.442383      1.48535      11.6328,0  0  0,24.78581      120.9973      140.2284,0.2634277    -0.5014648      140.2284,-57,6.75,
22:23:40:35,6112,24.9844,0.99998  -0.0015874  -0.0030969  -0.0053193,-0.18001    -0.35584    -0.60899,-0.0040474    0.019501    0.015671,-0.082825     0.21277     0.40796,-0.0225525     0.179688      10.1953,0  0  0,24.78581      120.9973      140.2503,0.2619629    -0.4863281      140.2503,-58,6.75,
22:23:40:69,6113,24.9844,1 -0.00096647  0.00051158  -0.0013701,-0.11083    0.058471    -0.15706,0.055695     0.14148  -0.0016203,-1.0967       1.043   -0.069641,-1.1221      1.0273      9.7188,0  0  0,24.78581      120.9973      140.2467,0.2496338    -0.4853516      140.2467,-59,6.25,
22:23:41:03,6114,24.9844,0.99996  -0.0009442  -0.0073821  -0.0056658,-0.10341    -0.84653    -0.64851,0.031616    -0.36621   -0.042114,1.8086     0.16345      1.6689,2.01953     0.167725      11.4219,0  0  0,24.78581      120.9973      140.2236,0.2331543    -0.4985352      140.2236,-66,6,
22:23:41:37,6115,25,0.99996  -0.0024674  -0.0039078  -0.0079443,-0.27918    -0.45003    -0.90927,-0.23682    0.019104    0.018677,2.2109      3.3281     0.89648,2.24219       3.2832      10.6953,0  0  0,24.78581      120.9973      140.2112,0.2407227    -0.5385742      140.2112,-72,6,
22:23:41:71,6116,25,0.99997  -0.0015144  -0.0028447   -0.006689,-0.17136    -0.32713    -0.76602,0.0076523    0.051819   0.0058479,-0.25732    -0.64844      0.8335,-0.192505    -0.682617       10.625,0  0  0,24.78582      120.9973      140.1676,0.1942139    -0.5712891      140.1676,-64,6.75,
22:23:42:05,6117,25,0.99999  -0.0011679  -0.0036658   0.0031939,-0.13517    -0.41964      0.3665,-0.0074463    0.053986    0.077942,0.37695    -0.32788    -0.32031,0.43994    -0.35352      9.4688,0  0  0,24.78582      120.9973      140.1668,0.1999512       -0.5625      140.1668,-70,6,
22:23:42:39,6118,25,0.99973  -0.0010726  -0.0034434     0.02282,-0.13189    -0.39168      2.6157,-0.0037842    0.046722     0.11603,0.20105     0.27319    -0.28027,0.27515     0.24133      9.5078,0  0  0,24.78582      120.9973      140.1596,0.2143555    -0.5869141      140.1596,-68,6.25,
22:23:42:73,6119,25,0.99966 -0.00036269  -0.0043683    0.025667,-0.054398    -0.49934      2.9418,-0.25073    -0.36768   -0.055359,1.7012      4.9922       6.125,2.15234      4.84766      15.9063,0  0  0,24.78582      120.9973      140.1343,0.2194824    -0.5537109      140.1343,-60,7,
22:23:43:07,6120,25.0156,0.99975 -0.00062492  -0.0014246     0.02225,-0.075225    -0.16161        2.55,-0.016495  -0.0094376   -0.030228,0.42041     0.14563     0.40503,0.457275        0.112      10.1953,0  0  0,24.78583      120.9973      140.1193,0.2004395    -0.6298828      140.1193,-65,6,
22:23:43:41,6121,25.0156,0.99985  -0.0010505  -0.0030131     0.01698,-0.12622    -0.34318      1.9462,0.011856   -0.033386   -0.066406,-0.12561    -0.20972       0.604,-0.0656128    -0.226807      10.3906,0  0  0,24.78583      120.9973      140.1019,0.1705322    -0.6328125      140.1019,-62,6.75,
22:23:43:75,6122,25.0156,0.99976  -0.0018021 -0.00061155    0.021797,-0.20798   -0.065561      2.4981,0.0050545   -0.056396    0.050842,-0.43848    -0.38477     -1.1211,-0.43921    -0.39575      8.6641,0  0  0,24.78583      120.9973      140.0755,0.1694336    -0.6030273      140.0755,-64,6.25,
22:23:44:08,6123,25.0469,0.99946 -0.00010714  0.00095345    0.032791,-0.0086884      0.1096      3.7582,0.20703     0.39502    0.069092,-1.8594    -0.20178    -0.59912,-1.9209    -0.06015      9.1797,0  0  0,24.78583      120.9973      140.0611,0.1881104    -0.6474609      140.0611,-70,6.25,
22:23:44:42,6124,25.0469,0.99926 -0.00048468  -0.0030425    0.038373,-0.068879    -0.34626      4.3985,0.014946    0.098877   -0.013168,0.99951      1.6436      1.1299,1.17871      1.55078      10.9141,0  0  0,24.78583      120.9973      140.0634,0.1855469    -0.6904297      140.0634,-78,4.75,
22:23:44:76,6125,25.0469,0.99939  0.00033178 -0.00083665    0.034818,0.034658   -0.097139      3.9906,-0.14111     0.12634    -0.12866,-0.4939    0.017166     0.61328,-0.48584    0.0427856      10.4063,0  0  0,24.78584      120.9973      140.0697,0.1657715    -0.6323242      140.0697,-75,6.25,
22:23:45:10,6126,25.0156,0.99965   0.0010502  -0.0026977    0.026149,0.11222    -0.31218      2.9965,-0.0048447   -0.068237   -0.089355,0.12292     0.12292     0.87744,0.195679     0.137085      10.6641,0  0  0,24.78584      120.9973      140.0989,0.1196289     -0.671875      140.0989,-68,6.75,
22:23:45:44,6127,25.0156,0.99995 -0.00086828  -0.0020278   0.0093125,-0.10166    -0.23144      1.0674,-0.014061   -0.058929    -0.15613,-0.88184     0.78076    -0.60693,-0.82422     0.77881      9.1875,0  0  0,24.78584      120.9973       140.161,0.0871582    -0.6743164       140.161,-70,6.5,
22:23:45:78,6128,25.0156,0.99996 -0.00055745  -0.0035802  -0.0085885,-0.060354     -0.4108    -0.98397,0.012283   -0.025238   -0.082397,0.83984     0.12915     0.63916,0.916016     0.134766      10.4219,0  0  0,24.78584      120.9973      140.2312,0.0647583    -0.7055664      140.2312,-65,6.25,
22:23:46:12,6129,25.0156,0.99995  0.00067232  -0.0060905  -0.0083096,0.082843    -0.69726    -0.95275,-0.015388   -0.063416    0.058868,0.36401    -0.41602   -0.084717,0.49585    -0.39771      9.6953,0  0  0,24.78584      120.9973      140.2792,0.04846191    -0.7280273      140.2792,-61,5.75,
22:23:46:46,6130,25.0156,0.99999  0.00020102  -0.0049464  4.7924e-05,0.023008    -0.56682   0.0053779,-0.014565    0.029984    0.052612,1.7148    0.073181     0.27148,1.8125     0.074646      10.0469,0  0  0,24.78585      120.9973      140.3073,0.08184814    -0.7788086      140.3073,-60,6.25,
22:23:46:80,6131,25.0156,0.99999  0.00019953  -0.0034413   0.0015655,0.022247    -0.39439     0.17932,0.014877    0.087219   0.0044518,-0.28955    -0.27466    -0.63623,-0.23438    -0.26855      9.1563,0  0  0,24.78585      120.9973      140.3217,0.05169678    -0.8046875      140.3217,-63,6.5,
22:23:47:14,6132,25.0156,0.99993   0.0011923  -0.0035225    0.010857,0.13224    -0.40511      1.2437,0.34839    -0.12634     0.10809,-0.95703    0.045258     0.76514,-0.866699     0.128418      10.5625,0  0  0,24.78585      120.9973      140.3051,0.04855347    -0.8056641      140.3051,-63,6.75,
22:23:47:48,6133,25.0156,0.9998  0.00094843  -0.0042324    0.019678,0.099119    -0.48704      2.2547,-0.024124    0.053955    0.027847,-0.89014    -0.58154     -1.4131,-0.84473     -0.5332      8.3828,0  0  0,24.78585      120.9973       140.228,0.07501221    -0.8154297       140.228,-64,6.5,
22:23:47:83,6134,25.0156,0.99964  0.00041837  -0.0034473    0.026645,0.037399    -0.39617      3.0536,-0.15112     0.25049    0.019196,0.079712     0.88916   -0.053558,0.17126     0.87549      9.7344,0  0  0,24.78586      120.9973      140.1446,0.09020996    -0.8500977      140.1446,-64,6.25,
22:23:48:17,6135,24.9219,0.99962  9.3035e-05  -0.0052688    0.026929,-0.0056018    -0.60383      3.0863,0.05127     0.11737    -0.05777,1.1816    0.035736      1.0225,1.28418   -0.0226593      10.7969,0  0  0,24.78586      120.9973      140.1006,0.09051514    -0.8164063      140.1006,-63,6.75,
22:23:48:51,6136,24.9219,0.99974   0.0011447  -0.0030616    0.022689,0.12318    -0.35372      2.5999,-0.065369    -0.11743   -0.015442,-3.5039      1.3838     0.77637,-3.35742      1.55762      10.5859,0  0  0,24.78586      120.9973      140.0886,0.06524658    -0.7915039      140.0886,-61,5.5,
22:23:48:85,6137,24.9219,0.99961  -0.0015349   -0.007467    0.026989,-0.19893     -0.8506      3.0947,-0.02597   -0.065857   0.0060921,2.4648     -1.0869      1.7881,2.58398     -1.26172      11.5313,0  0  0,24.78587      120.9973      140.1021,0.07885742    -0.8256836      140.1021,-61,6.25,
22:23:49:19,6138,24.9063,0.99932   0.0010337   -0.010424    0.035219,0.076321     -1.1979      4.0361,0.23682     0.12598    0.056732,4.1836    -0.44727     -1.1494,4.3125    -0.71191      8.5625,0  0  0,24.78587      120.9973      140.1171,0.1148071    -0.8652344      140.1171,-63,6.75,
22:23:49:53,6139,24.9063,0.99894 -0.00056818  -0.0094298    0.045006,-0.11369     -1.0766      5.1603,-0.26147    0.037384   -0.055573,3.2598      5.6406      8.7813,4.09375      5.24219      18.5156,0  0  0,24.78587      120.9973      140.1767,0.1124268    -0.7924805      140.1767,-61,6,
22:23:49:87,6140,24.9063,0.9987  0.00027435  -0.0055947    0.050704,-0.0011095    -0.64188      5.8129,0.36646    -0.72949    0.022186,-2.9844     -4.3438     -8.2422,-3.3809     -4.0117       1.623,0  0  0,24.78587      120.9973      140.2105,0.05007935    -0.8896484      140.2105,-64,6.5,
22:23:50:21,6141,24.9531,0.99902  -0.0014439  0.00059127    0.044143,-0.1623    0.074992        5.06,-0.027267    -0.10162    -0.13208,-1.0762      1.1885     -1.6855,-0.96973       1.252      8.1094,0  0  0,24.78588      120.9973      140.2294,0.1005249    -0.8276367      140.2294,-65,5.75,
22:23:50:55,6142,24.9531,0.99952  0.00013213     0.00143     0.03106,0.020224     0.16331      3.5599,0.61475        0.13    -0.07373,3.4668     -4.70313      15.0938,3.07031     -4.74219      24.9219,0  0  0,24.78588      120.9973      140.2499,0.08465576    -0.8388672      140.2499,-64,6.25,
22:23:50:89,6143,24.9531,0.99968  0.00093732  -0.0002769    0.025129,0.10658    -0.03442      2.8798,-0.0077515   -0.025635   -0.077209,0.0012846    -0.40894    -0.89453,-0.010399    -0.39233      8.8984,0  0  0,24.78588      120.9973      140.2816,0.04391479    -0.8110352      140.2816,-64,6,
22:23:51:23,6144,24.9531,0.99992  0.00090242   -0.004246    0.011848,0.09764    -0.48775      1.3573,-0.0078812   -0.086304   -0.075195,-0.22742    0.060699    -0.45142,-0.13733     0.08136      9.3359,0  0  0,24.78588      120.9973      140.3236,0.03323364    -0.8251953      140.3236,-64,6.25,
22:23:51:57,6145,24.9531,0.99992   0.0026589  -0.0026254    0.011982,0.30107    -0.30448      1.3723,0.018723   -0.079651    0.066406,0.49072    -0.43359    -0.90332,0.53516    -0.39722      8.8828,0  0  0,24.78589      120.9973      140.3468,0.01777649    -0.8305664      140.3468,-62,6.75,
22:23:51:91,6146,25.0156,0.99975    0.002602   -0.004824    0.021522,0.28621    -0.55908       2.465,0.045776     0.01136    0.019714,0.5083     0.20203     -1.1328,0.60107     0.22705      8.6484,0  0  0,24.78589      120.9973      140.3549,0.02459717    -0.8461914      140.3549,-62,6.5,
22:23:52:25,6147,25.0156,0.99978   0.0019547  -0.0031913    0.020576,0.21643    -0.37023      2.3573,-0.031189    0.097351   -0.022263,0.40991     0.12439      1.1104,0.475586     0.145508      10.8984,0  0  0,24.78589      120.9973      140.3632,0.03924561        -0.875      140.3632,-64,6.75,
22:23:52:58,6148,25.0156,0.9998   0.0018508  -0.0027494    0.019504,0.20591    -0.31914      2.2345,-0.01825     0.12292   -0.028595,-0.87695     0.52637    -0.18115,-0.81299     0.59326      9.6094,0  0  0,24.7859      120.9973      140.3732,0.02946472    -0.8867188      140.3732,-64,6.25,
22:23:52:92,6149,24.9844,0.99981  0.00010578  -0.0026365    0.019274,0.0062957     -0.3023      2.2088,0.018173     0.34399   -0.012947,0.090271    -0.15332     -1.0283,0.10132    -0.15393      8.7578,0  0  0,24.7859      120.9973      140.3485,0.03128052    -0.8730469      140.3485,-65,6.25,
22:23:53:26,6150,24.9844,0.99974 -0.00039661  -0.0044899    0.022172,-0.056847    -0.51337      2.5413,0.026108     0.19519  -0.0051498,0.23877     0.12988     -1.1455,0.30591     0.11298      8.6406,0  0  0,24.7859      120.9973      140.3661,0.0383606     -0.878418      140.3661,-68,6.75,
22:23:53:60,6151,24.9844,0.99975   0.0018419  -0.0057964    0.021546,0.19671    -0.66862      2.4681,0.046967     0.13074   0.0044212,-0.90039    -0.62354     -1.0654,-0.83496     -0.5498      8.7344,0  0  0,24.7859      120.9973      140.3742,0.01950073    -0.8813477      140.3742,-71,6.25,
22:23:53:94,6152,25.0469,0.99968    0.001545   -0.008044     0.02393,0.15495    -0.92576      2.7412,-0.014648    -0.35889    0.034027,1.5303     -1.3867      1.0586,1.67578     -1.43066      10.8203,0  0  0,24.78591      120.9973      140.3478,0.02731323    -0.8740234      140.3478,-66,6,
22:23:54:28,6153,25.0469,0.99948    0.002276  -0.0012824    0.032183,0.25594    -0.15527      3.6881,0.00011951    -0.18481   -0.019577,-1.8672      1.8867     0.31982,-1.69434      2.04883      10.1094,0  0  0,24.78591      120.9973      140.3464,0.02246094    -0.8691406      140.3464,-64,6.5,
22:23:54:62,6154,25.0469,0.99949   0.0022621   -0.011195    0.029685,0.22106       -1.29      3.3999,-0.20544     -1.1982    0.077515,-0.0738525      5.90625           10,0.966309       5.9375      19.7656,0  0  0,24.78591      120.9973       140.359,0.002311707    -0.8208008       140.359,-63,6.75,
22:23:54:96,6155,25.0469,0.99959   0.0013326   -0.002502    0.028476,0.14448    -0.29094      3.2631,-0.018555     0.18018   -0.010246,-0.52686     0.26807     -1.1348,-0.48145     0.31812      8.6563,0  0  0,24.78592      120.9973      140.3755,0.04772949    -0.8666992      140.3755,-62,6.5,
22:23:55:30,6156,25.0469,0.99947   0.0057269  -0.0041415    0.031695,0.6409    -0.49514      3.6299,0.14197    0.075256    0.080627,-1.5176      1.9102     -5.5391,-1.3574      2.0566      4.2344,0  0  0,24.78592      120.9973      140.3972,0.01395416    -0.8261719      140.3972,-63,6.5,
22:23:55:64,6157,25.0469,0.99917   0.0033968  -0.0045844    0.040267,0.36779    -0.54058      4.6139,-0.012115   -0.046814    0.052277,0.25903    -0.20959     -1.3457,0.32568    -0.17664      8.4375,0  0  0,24.78592      120.9973      140.4203,0.03143311    -0.8168945      140.4203,-64,6.25,
22:23:55:98,6158,25.0313,0.99908   0.0027459   -0.004569     0.04261,0.29207     -0.5365      4.8829,0.0021458     0.10657  -0.0090485,0.15784     -1.0576     0.18933,0.151     -1.0156      9.9844,0  0  0,24.78592      120.9973      140.4181,0.05157471    -0.8496094      140.4181,-65,6.25,
22:23:56:33,6159,25.0313,0.99918   0.0016251  -0.0014788    0.040494,0.17921    -0.17685      4.6412,-0.041138   -0.016724   -0.029831,0.25171    -0.14197      1.4756,0.277344    -0.130981      11.2656,0  0  0,24.78592      120.9973       140.429,0.04940796    -0.9057617       140.429,-63,6.25,
22:23:56:67,6160,25.0313,0.99927   0.0020972  -0.0015117    0.038243,0.23352    -0.18229      4.3831,-0.014877   -0.084961   -0.022308,0.17798     0.44775      0.9165,0.255859     0.475098      10.7031,0  0  0,24.78593      120.9973      140.3796,0.04351807    -0.8789063      140.3796,-66,6.25,
22:23:57:01,6161,24.9844,0.99942  0.00036486  -0.0023796    0.034024,0.032508    -0.27395      3.8995,0.04364    0.041962   -0.018784,1.2686     -0.5791     0.43481,1.27148     -0.65332      10.2188,0  0  0,24.78593      120.9973      140.2946,0.04989624    -0.8671875      140.2946,-66,6.25,
22:23:57:35,6162,24.9844,0.99961 -0.00076425   0.0039426    0.027698,-0.075031     0.45404      3.1741,-0.10736    -0.12274    -0.11542,-1.2012      1.8115     0.73828,-1.16992      1.84863      10.5234,0  0  0,24.78593      120.9973       140.269,0.01238251    -0.8725586       140.269,-67,6.25,
22:23:57:69,6163,24.9844,0.99977 -0.00092164 -9.2254e-05    0.021466,-0.10581   -0.008302        2.46,0.081299    -0.02858   -0.039673,2.0234    -0.31152     0.23718,2.01367    -0.407959      10.0234,0  0  0,24.78594      120.9973      140.2654,0.01823425    -0.9101563      140.2654,-65,6.25,
22:23:58:03,6164,24.9844,0.99984    0.001909   0.0031816    0.017612,0.22514     0.36068      2.0191,0.01223   -0.017838   -0.031235,-0.84082    0.091492     -0.5293,-0.89258     0.15857        9.25,0  0  0,24.78594      120.9973      140.2583,0.02539063    -0.8378906      140.2583,-67,6.25,
22:23:58:37,6165,24.9844,0.99982  0.00074878     0.00157    0.019098,0.089224     0.17823      2.1888,0.017456    -0.40356   -0.023193,-2.9297     -1.6123     -4.7852,-2.9844     -1.4912      5.0078,0  0  0,24.78594      120.9973      140.2504,-0.0259552    -0.8237305      140.2504,-67,6.25,
22:23:58:71,6166,24.9844,0.99976 -0.00054052   0.0010961    0.021882,-0.059176     0.12693      2.5077,-0.11292    0.010162   0.0038853,-0.58301      2.1172     0.92529,-0.512695      2.11719      10.7188,0  0  0,24.78594      120.9973      140.2025,0.05554199    -0.7768555      140.2025,-66,5.75,
22:23:59:05,6167,24.9844,0.99975  0.00056512  3.4082e-05    0.022342,0.064829   0.0024577      2.5604,0.022964   -0.037354  -0.0047264,-0.41895     0.27734     0.31274,-0.401611     0.309814      10.1016,0  0  0,24.78595      120.9973      140.2034,0.03158569    -0.8466797      140.2034,-73,6.25,
22:23:59:39,6168,24.9844,0.99983   0.0015889  0.00058952    0.018196,0.18328     0.06423      2.0853,-0.0070076     0.11017   -0.050751,-0.84717     0.36206     0.19104,-0.85449     0.42383      9.9766,0  0  0,24.78595      120.9973      140.2491,0.02993774    -0.8261719      140.2491,-74,6.25,
22:23:59:73,6169,24.9844,0.99995   0.0011779 -0.00049213   0.0094706,0.13443    -0.05767      1.0852,0.0019989   -0.061676   -0.045227,0.30981    0.088257      0.4353,0.329102     0.106873      10.2266,0  0  0,24.78595      120.9973      140.2376,0.04077148    -0.8271484      140.2376,-71,6.5,
22:24:00:07,6170,25,0.99998   0.0021443  -0.0036493   0.0040101,0.24404    -0.41916     0.45863,0.07428     0.15137    -0.02475,2.4746     0.21289     0.91748,2.54102     0.246948      10.6875,0  0  0,24.78595      120.9973      140.2393,0.0447998    -0.8144531      140.2393,-66,5.75,
22:24:00:41,6171,25,0.99995  0.00056121    0.002356     0.00963,0.066907     0.26935      1.1037,-0.00041962    -0.10236    0.055389,-3.2832      1.2578  -0.0086594,-3.291       1.335      9.7656,0  0  0,24.78596      120.9973      140.2307,0.00573349    -0.8310547      140.2307,-64,5.75,
22:24:00:75,6172,25,0.99981 -0.00098483   0.0014663    0.019263,-0.1096     0.17017      2.2074,0.010689    -0.17578    0.064392,-1.2744    -0.49438    -0.99951,-1.3027    -0.45972      8.7891,0  0  0,24.78596      120.9973      140.2216,0.04025269    -0.7807617      140.2216,-64,6,
22:24:01:08,6173,25.0313,0.99909   0.0001959  -0.0018898    0.042538,0.013216    -0.21731      4.8759,-0.002182    0.070862     0.10352,-0.25146    0.092041    -0.15564,-0.21179     0.11554      9.6328,0  0  0,24.78596      120.9973       140.219,0.05569458    -0.7226563       140.219,-65,6.25,
22:24:01:42,6174,25.0313,0.99874 -0.00079798  -0.0022235    0.050085,-0.10409    -0.24989       5.742,-0.022034  -0.0059166   -0.055054,-0.13147     0.45581     0.68506,-0.0380249     0.445557      10.4766,0  0  0,24.78596      120.9973      140.2552,0.0645752    -0.6567383      140.2552,-65,6.25,
22:24:01:76,6175,25.0313,0.99955  -0.0013469    0.003668    0.029573,-0.14185      0.4247      3.3888,0.039856   -0.054321    -0.18384,-1.9326     0.97803      1.9736,-1.95215       1.0625        11.75,0  0  0,24.78597      120.9973      140.2776,0.05267334    -0.5849609      140.2776,-66,6,
22:24:02:10,6176,25.0469,0.9997  -0.0012808  -0.0013319   -0.024239,-0.14303    -0.15614     -2.7777,-0.0016918     0.02034    -0.43945,0.2915     0.38623     0.47949,0.297852     0.375488      10.2656,0  0  0,24.78597      120.9973      140.3108,0.009262085    -0.4987793      140.3108,-67,6,
22:24:02:44,6177,25.0469,0.99271  -0.0013863   0.0028223     -0.1205,-0.196675     0.301913     -13.8422,-0.11761    0.074463    -0.69678,-0.10687     0.25806    -0.11072,-0.22388     0.17908      9.6797,0  0  0,24.78597      120.9973      140.3166,-0.03057861    -0.3806152      140.3166,-68,6.25,
22:24:02:78,6178,25.0313,0.97215 -0.00088468   0.0026671    -0.23436,-0.170181     0.273355     -27.1079,0.010025    0.057281    -0.73047,0.047821    -0.12286   -0.065186,0.048462    -0.11493      9.7266,0  0  0,24.78597      120.9973      140.3483,-0.05471802    -0.3156738      140.3483,-65,6.5,
22:24:03:12,6179,25.0313,0.93414 -0.00090484   0.0015404     -0.3569,-0.159856     0.127884     -41.8195,0.0018692    0.081238    -0.79492,-0.63867    -0.10028    0.023148,-0.43384    -0.53125      9.8125,0  0  0,24.78597      120.9973      140.3637,-0.1413574    -0.3354492      140.3637,-64,6.25,
22:24:03:46,6180,25.0313,0.87436  -0.0019668  -0.0012918    -0.48528,-0.125226    -0.238807     -58.0616,0.041748   -0.032593    -0.85938,-1.1201     -1.4326      1.2744,0.688477     -1.72266      11.0547,0  0  0,24.78597      120.9973      140.3442,-0.2980957     -0.371582      140.3442,-68,6.5,
22:24:03:80,6181,25.0469,0.8121  0.00081431   0.0022259    -0.58352,-0.0730594     0.261593     -71.3969,-0.0014925     0.10767    -0.61572,-1.0166      0.1394    -0.18652,-0.50391    -0.93408      9.6016,0  0  0,24.78597      120.9973      140.3508,-0.4008789    -0.3117676      140.3508,-69,6.75,
22:24:04:14,6182,25.0469,0.7477   0.0010517   0.0015128    -0.66404,-0.0250077     0.209639     -83.2175,-0.02916     0.14258    -0.60938,-3.7402     0.13892      2.6875,-0.619629     -3.71094      12.4688,0  0  0,24.78597      120.9973      140.3636,-0.4667969    -0.2304688      140.3636,-73,6.75,
22:24:04:48,6183,25.0469,0.69358   0.0009775   0.0013264    -0.72038,-0.0318038     0.186113     -92.1712,-0.010849    0.043549    -0.43237,-0.91064     0.64941     0.79688,-0.648438    -0.943848      10.5859,0  0  0,24.78597      120.9973      140.3626,-0.609375    -0.1778564      140.3626,-74,6.75,
22:24:04:83,6184,25.0469,0.65413 -0.00010889 -0.00016385    -0.75638,0.0060395   -0.0217195     -98.2928,-0.0013742    0.029312    -0.23364,-0.45532    -0.73242      1.4219,0.793457    -0.342041      11.2109,0  0  0,24.78597      120.9973      140.3539,-0.7124023    -0.1218262      140.3539,-67,5.75,
22:24:05:17,6185,25.0469,0.63459   -0.011039  -0.0081002    -0.77273,-0.08549321     -1.566704     -101.2115,0.0032387     -1.0293   -0.087219,-3.7832       -1.79     -2.5918,2.7637     -3.3711      7.0938,0  0  0,24.78597      120.9973      140.3292,-0.753418   -0.03036499      140.3292,-70,6.25,
22:24:05:51,6186,25.0469,0.65492   0.0034216  0.00012667    -0.75569,0.245821     0.305807     -98.1722,0.11719     0.15857     0.28857,-1.292       1.001     -3.6973,-0.85254     -1.3848      6.0938,0  0  0,24.78598      120.9973      140.3046,-0.7578125     -0.152832      140.3046,-71,6,
22:24:05:85,6187,25.0469,0.68671  0.00097124 -0.00096302    -0.72693,0.156647   0.00512428     -93.2601,0.029053    0.016571     0.19739,0.25732     -1.7256       1.377,1.70703     0.385498      11.1641,0  0  0,24.78597      120.9973      140.2927,-0.7954102    -0.2401123      140.2927,-67,5.5,
22:24:06:19,6188,25.0469,0.71122  0.00061511   0.0016523    -0.70297,-0.0829706     0.184215     -89.3312,0.076477     0.02092     0.17468,-1.8662      -1.207      3.3242,1.13867     -1.89063      13.1172,0  0  0,24.78597      120.9973      140.2772,-0.840332    -0.3251953      140.2772,-70,6.25,
22:24:06:53,6189,25.0469,0.71969   0.0004812  0.00012585    -0.69429,0.0296725    0.0486635     -87.9418,0.030899    0.072083   0.0071983,-0.25903    -0.25659     0.62891,0.231689    -0.259277      10.4219,0  0  0,24.78597      120.9973      140.2663,-0.7685547    -0.3618164      140.2663,-72,5.5,
22:24:06:87,6190,25.0781,0.72263   0.0017479  -0.0013471    -0.69123,0.251445    0.0269018     -87.4551,0.039185     0.12964   0.0053406,-0.3855    -0.87109     0.33887,0.836426    -0.375244      10.1328,0  0  0,24.78597      120.9973      140.2566,-0.78125    -0.3952637      140.2566,-70,6,
22:24:07:21,6191,25.0781,0.72089   0.0028444  -0.0017921    -0.69304,0.377296    0.0778526     -87.7431,0.0383    0.061035   -0.027618,-0.010742     -0.3313    0.019119,0.31226      0.0448      9.8125,0  0  0,24.78597      120.9973      140.2451,-0.7626953    -0.4001465      140.2451,-73,6.25,
22:24:07:55,6192,25.0781,0.71594   0.0036436  -0.0013446    -0.69815,0.4065     0.181182     -88.5574,-0.021271   0.0042801   -0.058472,0.088257    -0.71094     0.37549,0.681152     0.140869      10.1641,0  0  0,24.78597      120.9974      140.2446,-0.7314453    -0.4123535      140.2446,-74,6.5,
22:24:07:89,6193,25.125,0.71272   0.0041204 -0.00015168    -0.70144,0.348723      0.31881     -89.0849,0.02211   -0.098083   -0.020416,-0.8418    -0.38525     0.13037,0.32739    -0.78516      9.9297,0  0  0,24.78598      120.9974      140.2462,-0.7084961    -0.4074707      140.2462,-72,6.5,
22:24:08:23,6194,25.125,0.71258   0.0056912   0.0014678    -0.70157,0.346741     0.577403     -89.1062,0.0048561   -0.028534   0.0029469,-0.062805    -0.06958     0.72168,-0.0332336  0.000461102      10.5078,0  0  0,24.78598      120.9974      140.2133,-0.7607422    -0.4223633      140.2133,-70,6,
22:24:08:57,6195,25.125,0.71119   0.0029273   0.0010545    -0.70299,0.15362     0.321751     -89.3357,0.0039024    0.025955   -0.039551,-0.59814     0.23425    -0.80322,-0.29272     -0.5708      8.9844,0  0  0,24.78598      120.9974      140.1768,-0.7617188    -0.4311523      140.1768,-69,6.25,
22:24:08:91,6196,25.125,0.70373   0.0034587   0.0043502    -0.71045,-0.0752446     0.632394     -90.5447,0.0063782    0.062286    -0.11597,0.18115     0.42578     -1.0225,-0.52881     0.16577      8.7578,0  0  0,24.78598      120.9974      140.1474,-0.7211914    -0.4367676      140.1474,-67,6,
22:24:09:25,6197,25.125,0.67855   0.0042882    0.004211    -0.73453,-0.0210157     0.688386     -94.5377,-0.0011578    -0.03244    -0.32886,0.52588   -0.016922    0.021515,-0.14001     0.52197      9.8125,0  0  0,24.78598      120.9974       140.118,-0.5942383    -0.4194336       140.118,-67,6,
22:24:09:58,6198,25.125,0.61738   0.0089748   0.0039795     -0.7866,0.2762892      1.090567     -103.7423,0.030167  -0.0038605    -0.63818,0.4458      1.1055     -1.2012,-1.3428     0.20593      8.5625,0  0  0,24.78598      120.9974       140.141,-0.4880371     -0.388916       140.141,-67,6.25,
22:24:09:92,6199,25.125,0.53024   0.0069101   0.0017668    -0.84781,0.2482437     0.7787099     -115.9525,-0.0043221    -0.12286    -0.66699,0.85645    -0.34106    -0.63965,-0.1864     0.95752      9.1406,0  0  0,24.78598      120.9974      140.1995,-0.3789063    -0.3671875      140.1995,-70,5.75,
22:24:10:26,6200,25.125,0.41988   0.0079894   0.0034051    -0.90754,0.03028233     0.9947501     -130.3443,0.013451   -0.010078    -0.77734,1.2295     0.70361     -1.0254,-1.4863     0.47607      8.7422,0  0  0,24.78598      120.9974      140.1394,-0.269043    -0.3786621      140.1394,-71,6,
22:24:10:60,6201,25.125,0.30051   0.0068135   0.0043595    -0.95374,-0.2418578     0.8948129     -145.0243,0.026123   -0.061493    -0.81494,0.16125     0.65137    -0.41724,-0.64111     -0.4834      9.3594,0  0  0,24.78598      120.9974      140.1625,-0.241333    -0.3352051      140.1625,-71,6,
22:24:10:94,6202,25.1094,0.17282   0.0068508   0.0027478    -0.98493,-0.1744715     0.8276517     -160.0966,0.034088    0.030838    -0.69922,0.27466   -0.036713     0.44214,-0.39624    0.0979004      10.2266,0  0  0,24.78598      120.9974      140.2495,-0.2329102    -0.2895508      140.2495,-67,6.25,
22:24:11:28,6203,25.1094,0.054219   0.0080612   0.0028546    -0.99849,-0.2765694     0.9401276     -173.7859,-0.0042458   -0.012413    -0.79297,-0.12146     0.58984   -0.097534,-0.094788    -0.64697      9.6875,0  0  0,24.78598      120.9974      140.3169,-0.2191162    -0.1589355      140.3169,-72,6,
22:24:11:62,6204,25.1094,-0.018253    0.011091   0.0025995    -0.99977,-0.3210965      1.265345      177.9046,0.036865    -0.23645    -0.24023,0.68408    0.061768     -1.0811,-0.85156    -0.13403      8.6953,0  0  0,24.78598      120.9974      140.3594,-0.1461182    0.01293182      140.3594,-70,6,
22:24:11:96,6205,25.0625,-0.046579    0.011394   0.0026689    -0.99885,-0.3663925      1.290047       174.656,0.032867     0.12048    -0.12097,0.057648     0.83643      1.1035,-0.235718    -0.904297      10.8828,0  0  0,24.78598      120.9974      140.3825,-0.1244507     0.1700439      140.3825,-66,5.75,
22:24:12:30,6206,25.0625,-0.056491   0.0085093   0.0043215    -0.99836,-0.549559     0.9455636      173.5183,-0.046021     0.11987    -0.01413,0.58496     0.62891   -0.015717,-0.68213    -0.78906      9.7578,0  0  0,24.78598      120.9974      140.4012,-0.1170654     0.2802734      140.4012,-67,6.25,
22:24:12:64,6207,25.0625,-0.03398    0.006958   0.0039145    -0.99939,-0.4754338     0.7816237      176.1021,0.015762     0.04657     0.25024,-0.46973     0.12573     -1.3428,0.35864    -0.16309      8.4531,0  0  0,24.78598      120.9974      140.4344,-0.1611328     0.2585449      140.4344,-67,6,
22:24:12:98,6208,25.0469,0.013694   0.0070777   0.0041238    -0.99987,-0.4614425      0.817444     -178.4339,0.0065994   -0.037323     0.21191,-0.073608     0.70361    -0.48877,-0.075623     -0.7793      9.2969,0  0  0,24.78597      120.9974      140.3761,-0.2519531     0.2056885      140.3761,-67,7,
22:24:13:33,6209,25.0469,0.043576   0.0006644   0.0059536    -0.99903,-0.6782658       0.10579     -175.0055,0.0033913   -0.060699    0.096252,-1.9902    0.074402    -0.78027,1.9658    -0.35571      9.0078,0  0  0,24.78597      120.9974      140.3702,-0.3378906     0.2529297      140.3702,-66,6.25,
22:24:13:67,6210,25.0156,0.053629   0.0011814   0.0071964    -0.99853,-0.8162133     0.1794069     -173.8527,-0.0068855    -0.13037    0.012794,-0.55371      -0.375     0.87451,0.572266     0.160889      10.6641,0  0  0,24.78597      120.9974      140.3435,-0.4038086     0.3364258      140.3435,-65,6.25,
22:24:14:01,6211,25.0156,0.047995   0.0055196   0.0030352    -0.99883,-0.3170635     0.6484628     -174.4998,0.12793     0.55859     -0.1051,2.4063      1.4463      1.1475,-2.71484     -1.25781      10.8906,0  0  0,24.78597      120.9974      140.3216,-0.4226074       0.28125      140.3216,-70,6.25,
22:24:14:35,6212,25.0156,0.037213   0.0034334    0.002185     -0.9993,-0.2355691     0.4024793     -175.7355,0.039551   -0.042267   -0.031097,0.10388     0.30396    -0.77344,-0.18469    -0.32861      9.0156,0  0  0,24.78597      120.9974      140.3224,-0.4157715     0.3220215      140.3224,-69,6,
22:24:14:69,6213,25,0.045449   0.0038752   0.0021403    -0.99896,-0.2248276     0.4547507      -174.791,-0.015488       0.203     0.12524,0.9209     0.23291      1.5039,-1.0498    -0.192749      11.2813,0  0  0,24.78596      120.9974      140.3584,-0.442627     0.3000488      140.3584,-83,3.25,
22:24:15:03,6214,25,0.074774   0.0022021   0.0018194     -0.9972,-0.1890318     0.2672233      -171.424,-0.13135    -0.06488     0.10852,-0.46338    -0.82568      1.2754,0.539063     0.695801      11.0703,0  0  0,24.78596      120.9974      140.3705,-0.4951172     0.3173828      140.3705,-70,5.5,
22:24:15:37,6215,25,0.095209    0.001661   0.0037311    -0.99545,-0.4074971      0.230174      -169.074,-0.0083084  -0.0066757    0.058441,-2.1992    -0.95996      4.1016,2.28711     0.424316      13.9063,0  0  0,24.78596      120.9974      140.3574,-0.5805664     0.3408203      140.3574,-76,5.25,
22:24:15:71,6216,25.0156,0.085047   0.0013084   0.0056239    -0.99636,-0.6293698     0.2041942     -170.2435,0.05011    -0.12524    -0.20862,0.33521     -0.5957     -2.3105,-0.24695     0.56543      7.4844,0  0  0,24.78596      120.9974      140.3243,-0.5795898     0.3618164      140.3243,-70,6,
22:24:16:05,6217,25.0156,0.062062   0.0048365   0.0058757    -0.99804,-0.6376388     0.5949346     -172.8867,-0.0010014   -0.029816   -0.068054,-0.13745      -2.123      2.6504,0.27417      1.95117      12.4688,0  0  0,24.78596      120.9974      140.3287,-0.5576172     0.3681641      140.3287,-69,6.75,
22:24:16:39,6218,25.0156,0.069693   0.0035744   0.0054138    -0.99755,-0.5903325     0.4518343     -172.0095,0.12659     0.43896   -0.078186,-1.2148      3.1465     -5.1367,0.71094     -3.3262      4.6289,0  0  0,24.78595      120.9974      140.3476,-0.5751953     0.3891602      140.3476,-70,6.25,
22:24:16:73,6219,25,0.066668   0.0032983  0.00027484    -0.99777,-0.006226204     0.3792163     -172.3547,-0.32422     0.40063   -0.042114,-7.78516     -8.05469      25.0625,8.41406      6.83203      34.9688,0  0  0,24.78595      120.9974      140.3314,-0.6274414     0.3161621      140.3314,-75,5.75,
22:24:17:07,6220,25,0.061129   0.0073432 -0.00091531     -0.9981,0.1561424     0.8334856     -172.9895,0.016785     0.10651   -0.038757,-0.78857     0.54492   -0.005806,0.56494    -0.60889      9.7969,0  0  0,24.78595      120.9974      140.3228,-0.5888672     0.3991699      140.3228,-67,6.25,
22:24:17:41,6221,25,0.056714  0.00083737  -0.0018363    -0.99839,0.2155289    0.08386667     -173.4974,-0.54199    -0.37939   -0.015099,-2.8652     -1.5654     -2.4551,3.041      1.2197      7.3281,0  0  0,24.78595      120.9974      140.3438,-0.565918     0.3295898      140.3438,-71,6.25,
22:24:17:75,6222,25.0156,0.051243   0.0094877   0.0032387    -0.99864,-0.3149704      1.104812     -174.1281,0.010162     0.18115    -0.10449,-0.49268     0.78857      0.9751,0.184326    -0.892578      10.7656,0  0  0,24.78595      120.9974      140.3103,-0.5756836     0.4182129      140.3103,-72,6,
22:24:18:08,6223,25.0156,0.0434    0.011593   0.0062209    -0.99897,-0.6546705       1.35811     -175.0325,0.022827    0.085022 -0.00048923,1.5508      -1.208     -1.3525,-1.6455      1.2441      8.4141,0  0  0,24.78594      120.9974      140.3042,-0.5561523      0.456543      140.3042,-71,6,
22:24:18:42,6224,25.0156,0.055301    0.011378   0.0088011    -0.99837,-0.9350832      1.357551     -173.6701,-0.075317    -0.15808    0.075684,1.5664     0.25366     0.35034,-1.80762        -0.25      10.1016,0  0  0,24.78594      120.9974      140.3096,-0.5463867     0.4333496      140.3096,-75,6.25,
22:24:18:76,6225,25.0625,0.067444    0.013952   0.0065618     -0.9976,-0.6425704      1.645923     -172.2739,-0.019882   -0.067505   -0.054138,1.3457      1.4854     -4.2617,-1.6865     -1.3535      5.4688,0  0  0,24.78594      120.9974      140.3091,-0.5732422     0.4279785      140.3091,-69,6.75,
22:24:19:10,6226,25.0625,0.057341    0.011705   0.0015596    -0.99829,-0.1015307      1.349386     -173.4263,0.075378   -0.059784   -0.093567,2.1855     0.88672     -3.8672,-2.4063    -0.63867      5.8672,0  0  0,24.78594      120.9974      140.3083,-0.5629883     0.4746094      140.3083,-72,6,
22:24:19:44,6227,25.0625,0.044695    0.010559  3.7123e-06    -0.99894,0.05366608      1.208786     -174.8758,0.040558    0.032806     -0.0755,0.67432   -0.079895      -1.248,-0.84668     0.15088      8.5234,0  0  0,24.78593      120.9974      140.2816,-0.565918     0.4584961      140.2816,-71,6.25,
22:24:19:78,6228,25.0313,0.036905   0.0099053  0.00062823    -0.99927,-0.03005377      1.136965     -175.7701,-0.00082207    0.010498   -0.035828,0.35864     -1.5762      -1.292,-0.41016      1.5938      8.4922,0  0  0,24.78593      120.9974      140.2552,-0.559082     0.4304199      140.2552,-68,6.5,
22:24:20:12,6229,25.0313,0.036396   0.0092258   0.0019296    -0.99929,-0.1825142      1.064559     -175.8299,-0.055145      0.1521    0.030533,-1.2988      0.1134    -0.50977,1.1016    -0.24268      9.3047,0  0  0,24.78593      120.9974      140.2525,-0.5698242     0.4765625      140.2525,-76,5.25,
22:24:20:46,6230,25.0313,0.041063    0.008202   0.0018314    -0.99912,-0.171103      0.947714     -175.2944,0.12683    0.056671    0.020767,-0.63818       2.293     -1.7178,0.31006     -2.3516      8.0703,0  0  0,24.78593      120.9974      140.2465,-0.5703125     0.5288086      140.2465,-80,5,
22:24:20:80,6231,24.9375,0.042868   0.0069829  0.00068074    -0.99906,-0.04363599     0.8027967     -175.0864,0.04245    0.062805   0.0091782,-0.94531      1.9951    -0.29785,0.63232     -2.0723         9.5,0  0  0,24.78592      120.9974       140.248,-0.5791016     0.5253906       140.248,-67,6.25,
22:24:21:14,6232,24.9375,0.043546   0.0069698   0.0021248    -0.99903,-0.2084919      0.808533     -175.0098,0.019821    0.059113    0.036713,-0.99805       1.457     0.41016,0.717773     -1.57324      10.2031,0  0  0,24.78592      120.9974       140.245,-0.5791016      0.503418       140.245,-68,6,
22:24:21:48,6233,24.9375,0.052185    0.003241   0.0056433    -0.99862,-0.6264219     0.4046244     -174.0195,-0.20374    -0.16504    0.070007,0.10217    -0.31812     -2.9023,-0.1048     0.23804      6.8906,0  0  0,24.78592      120.9974      140.2499,-0.5683594     0.5097656      140.2499,-65,6,
22:24:21:82,6234,24.9531,0.068311    0.001395  -0.0003038    -0.99766,0.04565153     0.1571039      -172.166,0.023071     0.11914    0.069336,-0.34229     0.47461     -1.0273,0.24036    -0.50781      8.7656,0  0  0,24.78592      120.9974      140.2406,-0.6040039     0.4885254      140.2406,-63,6.5,
22:24:22:17,6235,24.9531,0.076304   0.0039909  -0.0017827    -0.99708,0.2385884     0.4404003     -171.2466,-0.11237   -0.019638  -0.0015287,0.58984    -0.65527     -1.5303,-0.54443      0.7627        8.25,0  0  0,24.78592      120.9974      140.2234,-0.6279297     0.4819336      140.2234,-61,6.5,
22:24:22:51,6236,24.9531,0.071574   0.0040889  -0.0031106    -0.99742,0.3890769     0.4418334     -171.7896,0.084961    0.060181   -0.051361,0.43042     0.90381       1.584,-0.647949    -0.746094       11.375,0  0  0,24.78591      120.9974      140.2208,-0.6162109     0.5498047      140.2208,-61,6,
22:24:22:85,6237,24.8906,0.068162   0.0053119  -0.0017202    -0.99766,0.2381625     0.5938445     -172.1818,-0.21362   0.0095825   -0.027603,-0.83105     -3.5566      1.7539,1.1875      3.43555      11.5469,0  0  0,24.78591      120.9974      140.2062,-0.6240234     0.5493164      140.2062,-62,5.75,
22:24:23:19,6238,24.8906,0.066804   0.0051884  -0.0024723    -0.99775,0.3223997     0.5742912     -172.3374,-0.12128    0.011902   -0.043518,0.42627    -0.76318     -1.6914,-0.40234     0.84912      8.0938,0  0  0,24.78591      120.9974      140.1484,-0.6162109     0.5751953      140.1484,-60,6.25,
22:24:23:53,6239,24.875,0.060653   0.0029798   0.0001756    -0.99815,0.0006247375     0.3420476     -173.0454,0.028442   -0.058319   -0.049805,0.69385      2.8828     -1.3096,-1.082     -2.7754      8.4766,0  0  0,24.78591      120.9974      140.1071,-0.6132813     0.6181641      140.1071,-61,6,
22:24:23:87,6240,24.875,0.062986   0.0018381 -5.5684e-05    -0.99801,0.01963529     0.2098137     -172.7775,0.063171    -0.16028  -0.0049896,-0.22095      2.1816     -3.8203,-0.066956     -2.1855      5.9727,0  0  0,24.7859      120.9974      140.0594,-0.6166992     0.6201172      140.0594,-58,6.25,
22:24:24:21,6241,24.875,0.059003   0.0019988  5.1389e-05    -0.99826,0.007635768     0.2289905     -173.2348,0.031052     0.26465     -0.1084,-1.4297      1.7627      -2.416,1.165     -1.9141      7.3828,0  0  0,24.7859      120.9974       139.985,-0.6201172     0.5869141       139.985,-60,6.25,
22:24:24:55,6242,24.9844,0.049771   0.0024565  2.8266e-05    -0.99876,0.01077507     0.2813016     -174.2943,0.06958    0.013947    -0.10059,-1.9443      2.0859     -2.1035,1.6904     -2.2617      7.6953,0  0  0,24.7859      120.9974      139.8738,-0.6689453     0.5888672      139.8738,-61,6,
22:24:24:89,6243,24.9844,0.049541   -0.011445    0.001042    -0.99871,-0.1842733     -1.303987     -174.3182,0.11011     -1.2871    0.042114,-2.3418     0.41187      3.6758,2.76758    -0.671387       13.375,0  0  0,24.78589      120.9974      139.8414,-0.6401367      0.612793      139.8414,-60,6,
22:24:25:23,6244,24.9844,0.059472   0.0065404   0.0062546    -0.99819,-0.6709372     0.7907689     -173.1853,-0.20056    -0.11755    0.028992,10.0625      5.76563     -19.4375,-10.5547     -4.39453     -9.84375,0  0  0,24.78589      120.9974      139.8264,-0.6220703     0.6015625      139.8264,-58,6.5,
22:24:25:57,6245,24.9531,0.07332   0.0015467   0.0038104     -0.9973,-0.4224685     0.2087711     -171.5912,0.0043716   -0.038055  -0.0080948,-1.1738      1.2383    -0.37842,0.95068     -1.4648      9.4063,0  0  0,24.78589      120.9974      139.7946,-0.7114258     0.6210938      139.7946,-58,6.75,
22:24:25:91,6246,24.9531,0.073577   0.0015823   0.0023317    -0.99729,-0.2531257     0.2004875     -171.5615,0.11401    -0.43799   0.0047989,0.23853      7.5078     -6.9375,-1.3369     -7.4023      2.8281,0  0  0,24.78589      120.9974      139.7795,-0.6645508     0.6049805      139.7795,-58,6.5,
22:24:26:25,6247,24.9531,0.073402  -0.0033867 -0.00031452     -0.9973,0.007457966    -0.3896879     -171.5812,-0.14502    -0.25024  0.00014925,-5.02344     -4.44141      11.2109,5.81641      3.63281      20.9531,0  0  0,24.78588      120.9974      139.8125,-0.6889648     0.6054688      139.8125,-58,7,
22:24:26:58,6248,24.8906,0.071101   0.0025983  -0.0018899    -0.99746,0.2371961     0.2815866     -171.8449,-0.02597     0.10706   -0.056824,-0.86279     0.18481     0.83105,0.765625    -0.263672       10.625,0  0  0,24.78588      120.9974      139.7875,-0.6699219     0.6181641      139.7875,-58,7,
22:24:26:92,6249,24.8906,0.063506   0.0081725  -0.0013365    -0.99795,0.2123404     0.9248867     -172.7159,0.032532       0.271   -0.035492,4.7891     0.37183    -0.36426,-4.9727     0.27539      9.3359,0  0  0,24.78588      120.9974      139.7473,-0.6347656     0.6000977      139.7473,-58,6.75,
22:24:27:26,6250,24.8906,0.057141   0.0017655 -1.7479e-05    -0.99836,0.01356002     0.2018653     -173.4485,-0.019455      0.7124   -0.089783,-5.7266     -1.3223      1.7666,5.71875     0.665527      11.6172,0  0  0,24.78588      120.9974      139.6938,-0.6494141     0.5957031      139.6938,-55,5.75,
22:24:27:60,6251,24.8125,0.059375  -0.0054905 -0.00013482    -0.99822,-0.02193635    -0.6289772     -173.1919,-0.14148     -1.1045   -0.035614,-2.06055      -2.2832      12.5391,2.81055      1.98438      22.2813,0  0  0,24.78588      120.9974      139.6415,-0.5380859     0.6289063      139.6415,-57,6.5,
22:24:27:94,6252,24.8125,0.062239   0.0018064  -0.0026148    -0.99806,0.3119326     0.1879449     -172.8628,0.052582    -0.08783  -0.0005827,0.76563       1.083     -4.4336,-0.90674    -0.94727      5.3594,0  0  0,24.78587      120.9974      139.6346,-0.5698242     0.6015625      139.6346,-56,6.5,
22:24:28:28,6253,24.8125,0.062411    0.001167  -0.0025571    -0.99805,0.3007965     0.1151778     -172.8432,0.018341     0.23096    0.036652,1.2188     -2.7578     -3.8203,-0.88916      2.9219      5.9492,0  0  0,24.78587      120.9974      139.6226,-0.5551758     0.5595703      139.6226,-56,5.75,
22:24:28:62,6254,24.8125,0.069685   0.0014633 -0.00061398    -0.99757,0.0818705     0.1623665     -172.0081,-0.0082932    0.088989   -0.029846,-0.71729     0.67676      2.1016,0.57373    -0.753418      11.8906,0  0  0,24.78587      120.9974      139.6204,-0.5776367     0.6157227      139.6204,-53,6.25,
22:24:28:96,6255,24.8125,0.071803     0.00334   -0.002054    -0.99741,0.2622505     0.3648421      -171.764,0.095337    0.009819   -0.013947,0.43115      1.3877   -0.061798,-0.6875     -1.2568      9.7266,0  0  0,24.78587      120.9974      139.6667,-0.5429688     0.6108398      139.6667,-53,6.75,
22:24:29:30,6256,24.8125,0.070499   0.0014995  -0.0014152    -0.99751,0.1738771     0.1599661     -171.9145,-0.0012646   -0.049713   -0.016937,0.24756     0.50732     -1.1094,-0.33545    -0.44092      8.6797,0  0  0,24.78586      120.9974      139.6906,-0.5429688     0.6308594      139.6906,-52,6.75,
22:24:29:64,6257,24.7656,0.071341   0.0030429 -0.00081748    -0.99745,0.118315     0.3411171     -171.8176,-0.011345  0.00030303   -0.012245,0.26685     0.64648    -0.17798,-0.41235    -0.58301      9.6094,0  0  0,24.78586      120.9974      139.7601,-0.5336914      0.652832      139.7601,-53,6.25,
22:24:29:98,6258,24.7656,0.071898   0.0035071  -0.0017743     -0.9974,0.2316936     0.3862244     -171.7531,0.026215   -0.039612   -0.035461,-0.4939     0.12433      0.8667,0.404297    -0.147705      10.6563,0  0  0,24.78586      120.9974      139.8439,-0.5175781     0.6411133      139.8439,-55,6,
22:24:30:32,6259,24.7656,0.07042   0.0034336  -0.0013515    -0.99751,0.1821921     0.3815793     -171.9231,0.030731   -0.036102    -0.05191,0.50977    -0.19128    -0.99707,-0.53271      0.2915      8.7891,0  0  0,24.78585      120.9974       139.911,-0.5068359     0.6420898       139.911,-57,6.25,
22:24:30:67,6260,24.7188,0.065907   0.0042954  -0.0020675    -0.99781,0.2688521     0.4755302     -172.4409,0.053162     0.14343   -0.038544,1.3477      1.5654     -2.7832,-1.6094     -1.3379      6.9961,0  0  0,24.78585      120.9974      139.9218,-0.4995117     0.6552734      139.9218,-58,6.5,
22:24:31:01,6261,24.7188,0.058713   0.0025353  -0.0033498    -0.99827,0.4002549     0.2674869     -173.2671,0.05368   -0.013466   -0.045502,-0.45654     0.58154     -0.9043,0.34595    -0.56396      8.8906,0  0  0,24.78585      120.9974      139.9416,-0.4836426     0.6821289      139.9416,-56,6.5,
22:24:31:35,6262,24.7188,0.050677   0.0022588 -0.00028806    -0.99871,0.04608452     0.2568349     -174.1903,-0.02478    0.065979   -0.036072,0.69385     0.15601     0.94775,-0.760254   -0.0788574      10.7344,0  0  0,24.78585      120.9974      139.9877,-0.4545898     0.6689453      139.9877,-53,6,
22:24:31:69,6263,24.6875,0.064688  -0.0039835  0.00020206     -0.9979,-0.05263639    -0.4540282     -172.5819,0.0023117   -0.048035     0.18164,-1.624    -0.73828      1.3975,1.80273     0.508789      11.1719,0  0  0,24.78584      120.9974      140.0421,-0.4604492     0.6420898      140.0421,-57,6.5,
22:24:32:03,6264,24.6875,0.082471  -0.0012919  0.00017089    -0.99659,-0.03172529    -0.1459188     -170.5387,0.029434    0.037201     0.01091,-0.38721   -0.099915     0.67627,0.422363    0.0322571      10.4609,0  0  0,24.78584      120.9974      140.0901,-0.4814453     0.6655273      140.0901,-56,6.25,
22:24:32:37,6265,24.6875,0.069126  -0.0022038  0.00043957    -0.99761,-0.06770854    -0.2484537     -172.0723,0.02858    0.079651   -0.078735,-0.14453     0.75244     -1.2471,0.071045    -0.77246      8.5391,0  0  0,24.78584      120.9974       140.116,-0.4807129     0.7070313       140.116,-53,6,
22:24:32:71,6266,24.6719,0.075957 -0.00050097  -0.0010741    -0.99711,0.1183638   -0.06658966     -171.2876,0.026459     0.12396    0.085571,0.58789   -0.041046     0.19617,-0.57422     0.15369      9.9844,0  0  0,24.78584      120.9974      140.1502,-0.4711914      0.730957      140.1502,-52,6.75,
22:24:33:05,6267,24.6719,0.082055  -0.0021515 -0.00087323    -0.99663,0.07949839    -0.2539209     -170.5868,0.019867    0.070557   0.0031738,-0.11047     0.48999    -0.61914,0.063904    -0.48682      9.1719,0  0  0,24.78584      120.9974      140.1517,-0.4746094     0.6879883      140.1517,-50,6,
22:24:33:39,6268,24.6719,0.087378  -0.0014253    0.004243    -0.99617,-0.4986255    -0.1202163     -169.9738,-0.04187    -0.14832   -0.016251,-0.21082      1.4346     -4.0664,-0.021133      -1.502      5.7109,0  0  0,24.78583      120.9974       140.148,-0.4589844     0.6894531       140.148,-50,6.25,
22:24:33:73,6269,24.6094,0.085037  0.00075426    0.004343    -0.99637,-0.4885194     0.1284384     -170.2441,0.023407   -0.044098   -0.045074,-0.11731     0.76855     -2.4336,-0.02684    -0.83838      7.3477,0  0  0,24.78583      120.9974      140.1156,-0.4528809     0.7070313      140.1156,-50,5.75,
22:24:34:07,6270,24.6094,0.082542  0.00071011  -0.0017658    -0.99659,0.2083703    0.06439338     -170.5305,0.040222     0.11279    0.020859,-1.25     -0.1059     0.35278,1.22852   -0.0604248      10.1484,0  0  0,24.78583      120.9974      140.1195,-0.4265137     0.6049805      140.1195,-52,6.5,
22:24:34:41,6271,24.625,0.081857  -0.0018238  -0.0016496    -0.99664,0.1712909    -0.2237697     -170.6096,-0.031021     0.26855    -0.10565,-2.1191     -1.2549      4.2031,2.3125     0.932129      13.9844,0  0  0,24.78583      120.9974       140.161,-0.4301758     0.6630859       140.161,-52,6.5,
22:24:34:75,6272,24.625,0.078188   0.0001405   0.0010903    -0.99694,-0.1233027    0.02582021     -171.0312,0.044006    0.070007   0.0046043,0.54736     0.12927     -2.9648,-0.56787   -0.053802      6.8242,0  0  0,24.78583      120.9974      140.2438,-0.371582     0.5957031      140.2438,-53,6.25,
22:24:35:08,6273,24.625,0.075078 -0.00098627  0.00093497    -0.99718,-0.1153221    -0.1046558     -171.3885,0.027649     0.18884   -0.055725,-1.1807   0.0014191    0.074646,1.168     -0.1947      9.8594,0  0  0,24.78582      120.9974      140.3195,-0.3508301      0.590332      140.3195,-58,6.75,
22:24:35:42,6274,24.5938,0.070541 -0.00096617   0.0011523    -0.99751,-0.1395218    -0.1011252     -171.9097,-0.011353    0.034546   -0.067932,0.029877    -0.54102      2.2246,0.0646362     0.509277      12.0156,0  0  0,24.78582      120.9974      140.3939,-0.3134766     0.6020508      140.3939,-55,6.25,
22:24:35:76,6275,24.5938,0.064294  0.00076842   0.0017238    -0.99793,-0.1914627      0.100572     -172.6275,-0.0070496    0.021027   -0.056946,-0.55566     -1.1895     0.58398,0.684082      1.07422       10.375,0  0  0,24.78582      120.9974      140.5105,-0.2768555     0.5581055      140.5105,-56,6,
22:24:36:10,6276,24.5938,0.054475  0.00034727 -0.00079717    -0.99851,0.09338144    0.03475873     -173.7545,0.013596   -0.032501   -0.060242,-0.27124   -0.088745     0.56299,0.277344    0.0773315      10.3516,0  0  0,24.78582      120.9974       140.599,-0.2348633     0.5722656       140.599,-53,6.25,
22:24:36:44,6277,24.5625,0.053288   0.0016436 -0.00078555    -0.99858,0.0999261     0.1832759     -173.8906,-0.0051765    0.082214    0.012642,0.31958     0.20251     -0.2345,-0.37671    -0.15088      9.5547,0  0  0,24.78582      120.9974      140.6999,-0.223999     0.5678711      140.6999,-54,6.75,
22:24:36:78,6278,24.5625,0.070142   0.0019654  -0.0011397    -0.99753,0.1460814     0.2154999     -171.9554,-0.016586    0.042969     0.10419,0.097412  -0.0064888      0.6167,-0.137939    0.0452271      10.4063,0  0  0,24.78582      120.9974       140.749,-0.2349854     0.5654297       140.749,-55,6.5,
22:24:37:13,6279,24.5625,0.082592   0.0011355  -0.0015612    -0.99658,0.1890375     0.1149027     -170.5246,0.019989     0.10114    0.022186,-0.8457      -1.166     0.56104,0.996582      1.04688      10.3516,0  0  0,24.78581      120.9974      140.8089,-0.2844238     0.5400391      140.8089,-51,6.25,
22:24:37:47,6280,24.5,0.075091    0.001316  -0.0004939    -0.99718,0.06776148     0.1461256      -171.387,-0.0016928   -0.090393   -0.056274,0.072632    -0.83936      2.0332,0.0354004      0.85498      11.8203,0  0  0,24.78581      120.9974      140.8625,-0.2507324     0.5473633      140.8625,-49,6.25,
22:24:37:81,6281,24.5,0.078392  -0.0017237 -0.00070465    -0.99692,0.06501513    -0.2032436     -171.0079,-0.042908  -0.0055656    0.029343,-1.4893     -1.1074     0.91895,1.68457     0.868652      10.7031,0  0  0,24.78581      120.9974      140.9266,-0.2595215     0.5727539      140.9266,-52,7.25,
22:24:38:15,6282,24.5,0.084891  0.00097976 -0.00040837    -0.99639,0.05615774      0.107894     -170.2605,-0.023376     0.01049    0.015732,0.79395    -0.64014    -0.55273,-0.69092     0.77246      9.2344,0  0  0,24.78581      120.9974      140.9247,-0.2600098     0.5976563      140.9247,-49,6,
22:24:38:49,6283,24.4531,0.082852 -0.00078332 -4.7326e-05    -0.99656,-0.002032457   -0.08990265     -170.4949,-0.0046196   -0.071411   -0.049957,-0.42456   -0.013603      1.5996,0.448242    -0.057251      11.3906,0  0  0,24.78581      120.9974      140.9005,-0.2587891     0.5766602      140.9005,-49,6.25,
22:24:38:83,6284,24.4531,0.081203  0.00057246  0.00025755     -0.9967,-0.02408873    0.06777937     -170.6846,-0.01358     0.21191   -0.041565,2.0527    -0.05426    -0.69092,-2.0469     0.38037      9.0938,0  0  0,24.7858      120.9974      140.9214,-0.2479248     0.5390625      140.9214,-53,6.75,
22:24:39:17,6285,24.4531,0.070221  -0.0028033  0.00072885    -0.99753,-0.1058724    -0.3145779     -171.9463,-0.14636     0.69824     -0.1192,-3.1152      2.2461     -3.4648,2.7637     -2.6777      6.3203,0  0  0,24.7858      120.9974      140.9417,-0.2675781     0.5053711      140.9417,-50,6.25,
22:24:39:51,6286,24.4531,0.063511  4.3645e-05  9.8875e-05    -0.99798,-0.0109897    0.00571088     -172.7173,-0.014877    0.062683   -0.048187,-0.17395       1.916     -2.7188,-0.074036     -1.9248      7.0703,0  0  0,24.7858      120.9974       140.996,-0.2043457     0.5351563       140.996,-49,6.25,
22:24:39:85,6287,24.4531,0.070592  -0.0015938      0.0019     -0.9975,-0.2300759    -0.1668089     -171.9037,-0.12006     0.20752    0.022903,-2.6797     -2.7305      1.5605,3.04883      2.26563      11.3594,0  0  0,24.7858      120.9974      141.0042,-0.2271729     0.5273438      141.0042,-51,6.25,
22:24:40:19,6288,24.4531,0.083285 -0.00090098    0.001611    -0.99652,-0.1925648   -0.08751097      -170.445,0.049164    0.039581    0.076111,-1.3223     0.43652      1.8271,1.24609    -0.684082      11.6094,0  0  0,24.7858      120.9974      140.9977,-0.2249756     0.5585938      140.9977,-50,6.25,
22:24:40:53,6289,24.4219,0.09482 -0.00074105  0.00094122    -0.99549,-0.1154225   -0.07430893      -169.118,-0.022705    0.023376    0.019348,0.063232     -1.0674   -0.093811,0.15112      1.0391      9.6953,0  0  0,24.7858      120.9974      141.0183,-0.2207031     0.4589844      141.0183,-58,6.5,
22:24:40:87,6290,24.4219,0.079185 -0.00017281   0.0019797    -0.99686,-0.2277135   -0.00177698     -170.9166,-0.013649    0.062103    -0.21667,-0.67188     -0.2251     0.89648,0.693359    0.0739746      10.6875,0  0  0,24.7858      120.9974      141.0515,-0.1837158     0.3601074      141.0515,-51,6.25,
22:24:41:21,6291,24.4219,0.016577  -0.0013574   0.0020997    -0.99986,-0.2431562    -0.1515309        -178.1,0.010582    0.045105     -0.4624,0.47852    -0.52148    0.014488,-0.44067     0.49463      9.8047,0  0  0,24.7858      120.9974      141.1131,-0.0803833      0.246582      141.1131,-58,6.5,
22:24:41:55,6292,24.3906,-0.070175   0.0010559    0.003845    -0.99753,-0.4480149    0.08977953      171.9515,-0.028656     0.12793    -0.59033,0.14563     0.16821     0.81836,-0.148071    -0.273438      10.6016,0  0  0,24.78579      120.9973       141.078,0.005458832      0.192749       141.078,-47,7.25,
22:24:41:89,6293,24.3906,-0.15893 -0.00040884   0.0035584    -0.98728,-0.3951319    -0.1110583      161.7108,-0.020706    0.033112    -0.48633,-0.29297     0.19556     0.40039,0.357666    -0.164307      10.1875,0  0  0,24.78579      120.9973      141.0192,0.1138916     0.1866455      141.0192,-46,6.75,
22:24:42:23,6294,24.3906,-0.24469   0.0030261   0.0010141     -0.9696,-0.197525     0.3077934      151.6725,-0.016129     0.04657    -0.70605,-0.37183     0.02124      0.2583,0.279053     0.123657      10.0469,0  0  0,24.78579      120.9974      140.9701,0.1202393     0.0557251      140.9701,-50,6,
22:24:42:57,6295,24.3906,-0.37324   0.0013363  0.00053418    -0.92773,-0.1139424     0.1192142      136.1687,0.019806    0.048187    -0.83594,1.0293    -0.27295    -0.29419,-0.9502    -0.54053      9.4922,0  0  0,24.78579      120.9974      140.9487,0.1920166   -0.01895142      140.9487,-56,5.5,
22:24:42:91,6296,24.3906,-0.49619   0.0017986   0.0017103    -0.86821,-0.2724306    0.08169877      120.5032,-0.0072823   -0.040619    -0.76025,0.91406   -0.028244      0.5752,-0.491455     -0.82666      10.3594,0  0  0,24.78579      120.9974      140.8705,0.3483887   -0.03393555      140.8705,-59,6,
22:24:43:25,6297,24.3906,-0.58601   0.0037079   0.0013509    -0.81029,-0.374429     0.2535704      108.2493,-0.050812     0.21667    -0.65576,0.86816     0.30664      1.3818,-0.0465698    -0.999023      11.1641,0  0  0,24.78579      120.9973       140.824,0.5708008    0.00198555       140.824,-49,6.25,
22:24:43:58,6298,24.3594,-0.65725   0.0015042  -0.0010079    -0.75367,-0.0262452     0.205821      97.8185,0.044281     0.26904    -0.37256,0.77246     -1.4287    -0.98682,-1.5732    -0.57666      8.7891,0  0  0,24.78579      120.9973      140.7427,0.7768555   -0.06658936      140.7427,-44,6.25,
22:24:43:92,6299,24.3594,-0.66152  -0.0012219  -0.0014493    -0.74993,0.217173   0.00485898      97.1684,0.034393   -0.025757     0.10791,0.27905     0.29907     0.22607,0.264404    -0.272705      10.0156,0  0  0,24.78579      120.9973       140.679,0.7724609   -0.02708435       140.679,-43,6.5,
22:24:44:27,6300,24.3594,-0.63783 -0.00051096  -0.0020228    -0.77018,0.215869     0.1027493      100.7402,-0.017807   -0.054382     0.14758,-0.4165    -0.73828   -0.054352,-0.65771     0.58301      9.7344,0  0  0,24.78579      120.9973       140.639,0.6889648    0.08526611       140.639,-45,5.75,
22:24:44:61,6301,24.4063,-0.62626   0.0022793   -0.001577    -0.77961,-0.02268819     0.3168045      102.4498,-0.10144    -0.44922   -0.012596,-3.9902     -3.9395      5.0117,-3      4.72656      14.8047,0  0  0,24.78579      120.9973      140.6071,0.6445313     0.1137695      140.6071,-44,4.5,
22:24:44:95,6302,24.4063,-0.63101  0.00096749  0.00098244    -0.77577,-0.1572939    0.01496768      101.7502,0.042389   -0.088867   -0.029114,0.34448      1.6035     0.84668,1.50781    -0.687988      10.6328,0  0  0,24.78579      120.9973      140.6079,0.6806641     0.1977539      140.6079,-49,6.25,
22:24:45:29,6303,24.4219,-0.63232   0.0024239 -2.4194e-05     -0.7747,-0.1734846     0.2169309       101.556,0.15747     0.17896    0.045868,1.3984    -0.11938     -2.7559,-0.43628     -1.3564      7.0273,0  0  0,24.78579      120.9973      140.5729,0.6918945     0.2019043      140.5729,-42,6.25,
22:24:45:63,6304,24.4219,-0.63287   0.0026677  -0.0012617    -0.77425,-0.0815276     0.3281902      101.4752,0.014107   -0.048126   -0.036987,0.44189    -0.57324      1.9805,-0.709961    -0.333984      11.7656,0  0  0,24.78579      120.9973      140.5409,0.7167969     0.2244873      140.5409,-41,6.25,
22:24:45:97,6305,24.4219,-0.62305   0.0020097  -0.0016203    -0.78218,0.001742109     0.2958219       102.921,-0.056885    0.013809    0.053223,-0.49048     0.91113      2.1543,0.936035     0.267578      11.9453,0  0  0,24.78579      120.9973      140.5409,0.7041016     0.2641602      140.5409,-34,6.25,
22:24:46:31,6306,24.4531,-0.61617   0.0029921   0.0012982    -0.78761,-0.3284387      0.178384      103.9253,0.013092    0.037415    0.034332,-0.0077667     0.29614    -0.67041,0.25854    -0.11475      9.1172,0  0  0,24.78579      120.9973      140.5258,0.7412109     0.3115234      140.5258,-31,7,
22:24:46:65,6307,24.4531,-0.61239   0.0037312  0.00068922    -0.79055,-0.3242803     0.2896473      104.4734,0.022827  -0.0024014  -0.0035172,-0.30957     0.29077     -1.5898,0.3186     0.18262      8.2031,0  0  0,24.78579      120.9973      140.5399,0.7382813     0.3310547      140.5399,-24,6.25,
22:24:46:99,6308,24.4531,-0.61724   0.0017328 -0.00073759    -0.78677,-0.05606435     0.2083977      103.7699,0.0051003     0.18396   -0.082336,-0.52051     0.91211     0.37354,0.955078     0.279785      10.1719,0  0  0,24.78579      120.9973      140.5783,0.7333984       0.34375      140.5783,-22,6.25,
22:24:47:33,6309,24.4531,-0.63644   0.0011537  -0.0021326    -0.77132,0.1043512     0.2575072      100.9455,-0.01104     0.06781    -0.28589,0.34497    -0.59619     -1.0137,-0.69482    -0.21228      8.7734,0  0  0,24.78579      120.9973      140.6192,0.6542969     0.3049316      140.6192,-27,6.25,
22:24:47:67,6310,24.4531,-0.69515   0.0011104  -0.0018456    -0.71886,0.0635796     0.238482      91.9212,0.056763   -0.048828     -0.6084,0.54199    -0.73535     -2.3359,-0.77686    -0.50879      7.4531,0  0  0,24.78579      120.9973      140.6497,0.5512695     0.2316895      140.6497,-26,7.25,
22:24:48:01,6311,24.4531,-0.78641  0.00047771 -9.5764e-05    -0.61771,-0.0362703    0.0424439      76.2979,0.046875    -0.01976    -0.93652,0.20813     0.32739      -1.165,0.36499     -0.1225       8.625,0  0  0,24.78579      120.9973      140.7114,0.496582     0.1577148      140.7114,-23,6.75,
22:24:48:35,6312,24.4688,-0.87197   0.0046571   -0.005067    -0.48951,-0.181131     0.767554      58.6175,-0.0047493     0.15271    -0.81494,-1.0811     -2.6758     -1.3213,-2.9688      -0.521      8.4219,0  0  0,24.78579      120.9973       140.742,0.4587402    0.00586319       140.742,-29,5.75,
22:24:48:69,6313,24.4688,-0.93408  0.00050581   0.0018076    -0.35706,-0.128102    -0.172788      41.8394,-0.0040054    -0.54199    -0.93066,1.541    0.094727     0.31372,1.30664    -0.968262      10.0859,0  0  0,24.78579      120.9973      140.7612,0.3903809    -0.1230469      140.7612,-37,6.5,
22:24:49:03,6314,24.4688,-0.97415   0.0024941   -0.001088     -0.2259,-0.250248     0.186009      26.1113,-0.0013084   -0.036926    -0.85449,0.49951     -1.1182     0.64844,-0.0616455     -1.26953      10.4297,0  0  0,24.78579      120.9973      140.7693,0.3295898    -0.1721191      140.7693,-42,6,
22:24:49:37,6315,24.4844,-0.99503   0.0018792  -0.0011558   -0.099564,-0.201079     0.153225      11.4279,0.012535  0.00065947    -0.65576,0.58545    -0.84326     0.82178,0.385742    -0.975586      10.6094,0  0  0,24.78579      120.9973      140.7632,0.2393799    -0.3186035      140.7632,-34,6,
22:24:49:71,6316,24.4844,-0.99904   0.0019913  -0.0013083   -0.043839,-0.2214     0.15978      5.0249,0.023605    0.010811    -0.13916,-1.3125    -0.97168      -3.293,-1.4102    -0.87793      6.4883,0  0  0,24.78579      120.9973      140.7934,0.1541748    -0.4189453      140.7934,-32,4.5,
22:24:50:05,6317,24.4844,-0.99737   0.0023775  -0.0010274   -0.072422,-0.26321     0.13715       8.306,0.050201    -0.26807     0.33789,-0.20032     0.26563     -1.4053,-0.15564      0.2583      8.3828,0  0  0,24.78579      120.9973      140.8213,0.1600342     -0.380127      140.8213,-36,6.5,
22:24:50:39,6318,24.5,-0.99211   0.0038474 -0.00072613    -0.12529,-0.426977     0.137787       14.394,0.0094681   -0.070862     0.23767,1.1895    -0.48999     0.51514,1.0127    -0.848633      10.2969,0  0  0,24.7858      120.9973      140.8481,0.2770996    -0.3879395      140.8481,-42,6.75,
22:24:50:73,6319,24.5,-0.99228   0.0024226  -0.0025523    -0.12398,-0.239208     0.324634      14.2429,0.022675    -0.10236    -0.13501,-1.0547    -0.99072      -2.791,-1.2969    -0.72998      6.9883,0  0  0,24.7858      120.9973      140.9126,0.3183594    -0.4187012      140.9126,-40,6.25,
22:24:51:07,6320,24.5,-0.9928   0.0012879  -0.0038083     -0.1197,-0.0942837     0.450924      13.7494,0.012024   -0.039429   -0.008461,-0.18835     0.29297     -1.3477,-0.17554     0.31665      8.4375,0  0  0,24.7858      120.9973      140.9722,0.3215332    -0.3852539      140.9722,-41,6.5,
22:24:51:41,6321,24.5313,-0.9923   0.0028861  -0.0043314    -0.12374,-0.266769     0.533451      14.2151,0.0093994    0.080872     0.01429,0.35962   -0.050323   -0.041382,0.23853     -0.1814        9.75,0  0  0,24.7858      120.9973      141.0104,0.3728027    -0.4836426      141.0104,-42,6.5,
22:24:51:75,6322,24.5313,-0.99195   0.0033067  -0.0024904     -0.1266,-0.339748     0.331051      14.5456,0.0073318     0.38745   -0.063049,0.74951    -0.91797     -1.0898,0.41211      -1.127      8.6953,0  0  0,24.7858      120.9973      141.1977,0.4206543    -0.4641113      141.1977,-40,6.25,
22:24:52:09,6323,24.5313,-0.99289   0.0012651  -0.0019195    -0.11902,-0.117757     0.235649      13.6713,0.03833    0.031494   -0.072693,0.19482   -0.054291     -1.5137,0.14075    -0.11237      8.2734,0  0  0,24.78581      120.9973      141.3036,0.4260254    -0.4907227      141.3036,-41,6.75,
22:24:52:43,6324,24.5469,-0.99375   0.0031547  -0.0028659    -0.11157,-0.322606      0.36669      12.8112,-0.014862   -0.015076   -0.081482,0.75879     -0.3623       1.124,0.592773    -0.583984      10.9141,0  0  0,24.78581      120.9973      141.3751,0.4306641    -0.4838867      141.3751,-43,5.75,
22:24:52:77,6325,24.5469,-0.99452   0.0041966  -0.0025911    -0.10441,-0.447266     0.345508      11.9857,0.033875    0.052063   -0.035553,0.72461   -0.060547    -0.26318,0.63477    -0.28052      9.5313,0  0  0,24.78581      120.9973      141.6048,0.4619141    -0.4663086      141.6048,-43,5.5,
22:24:53:11,6326,24.5469,-0.99376   0.0017439 -0.00031313    -0.11154,-0.194587    0.0579477      12.8079,0.016495   -0.058685     0.08551,0.19275     0.18872   -0.075012,0.22681     0.10986      9.7109,0  0  0,24.78581      120.9973      141.7613,0.4956055    -0.4841309      141.7613,-44,6.5,
22:24:53:45,6327,24.625,-0.99177  0.00038116  -0.0020416    -0.12804,-0.0133638     0.237615      14.7126,0.011322    0.060455    0.024353,-0.048523    -0.81299    -0.62695,-0.29614    -0.77441      9.1641,0  0  0,24.78582      120.9973      142.0671,0.5771484    -0.5161133      142.0671,-47,6.25,
22:24:53:79,6328,24.625,-0.99252  9.0048e-05 -0.00081215    -0.12208,0.0011201    0.0936295      14.0245,-0.025848  -0.0096207   -0.078125,-0.54248    -0.71338    -0.45361,-0.71191    -0.56348      9.3359,0  0  0,24.78582      120.9973      142.2034,0.6049805    -0.5366211      142.2034,-60,6.5,
22:24:54:13,6329,24.625,-0.99329   0.0004922  -0.0010677    -0.11565,-0.0418751     0.128047      13.2818,-0.0088272    0.028824   -0.016312,-0.099915      1.2822      1.7285,0.169434      1.26172      11.5156,0  0  0,24.78582      120.9973      142.4038,0.6064453    -0.5029297      142.4038,-68,7,
22:24:54:47,6330,24.625,-0.99403   0.0012118  -0.0022085    -0.10906,-0.110438     0.266713      12.5224,0.015945     0.11334    -0.10602,0.26367    -0.25122    -0.37891,0.14966    -0.31885      9.4141,0  0  0,24.78583      120.9973      142.6617,0.6269531    -0.4572754      142.6617,-59,6.25,
22:24:54:81,6331,24.625,-0.99542  3.0853e-05   -0.002677   -0.095565,0.0257967     0.305696      10.9678,0.034363    0.054169   -0.052246,0.50488   -0.054718      1.6475,0.419434    -0.140259      11.4375,0  0  0,24.78583      120.9973      142.7422,0.6254883    -0.5507813      142.7422,-48,5.75,
22:24:55:15,6332,24.625,-0.99486 -0.00088294  -0.0011698    -0.10125,0.114231     0.123119      11.6228,0.012054    0.011597   0.0090256,0.28003    -0.36841     0.24329,0.178345    -0.395752      10.0313,0  0  0,24.78584      120.9973      142.8227,0.6259766     -0.543457      142.8227,-48,6.75,
22:24:55:49,6333,24.5938,-0.99431 -0.00067536  -0.0023454    -0.10652,0.105581      0.25899        12.23,0.0035133    0.032745    0.029892,-0.61279    -0.59473    0.080994,-0.77148    -0.43262      9.8672,0  0  0,24.78584      120.9973      142.9988,0.6552734    -0.6254883      142.9988,-48,6.25,
22:24:55:83,6334,24.5938,-0.99318  0.00049702  -0.0021911    -0.11654,-0.0273047     0.256003      13.3852,0.0044174    0.018311    0.051331,-0.080322    -0.16321    -0.77002,-0.15698     -0.1438      9.0156,0  0  0,24.78584      120.9973      143.0395,0.6699219    -0.5864258      143.0395,-49,6.25,
22:24:56:17,6335,24.6094,-0.99172  0.00055905  -0.0019776    -0.12844,-0.0344254     0.232971      14.7588,0.04599   -0.028641     0.01226,-0.0076866    -0.75244      1.3174,-0.240112    -0.727051      11.1016,0  0  0,24.78584      120.9973      143.1033,0.6992188    -0.5966797      143.1033,-49,6,
22:24:56:51,6336,24.6094,-0.99263   0.0012867   0.0020472    -0.12119,-0.174791    -0.214991      13.9219,-0.010262   -0.060913    -0.17712,-0.19275   -0.024033      1.1836,-0.143799   -0.0115509      10.9766,0  0  0,24.78585      120.9973      143.2072,0.6928711    -0.6040039      143.2072,-49,6.5,
22:24:56:85,6337,24.6094,-0.99395    0.025412   -0.015668    -0.10572,-2.70743      2.09282      12.0931,-0.80957    -0.98535     0.25757,1.64551     -1.03125     -14.9375,1.5254     -1.0732     -5.1758,0  0  0,24.78585      120.9973      143.2008,0.6938477    -0.4104004      143.2008,-53,6.5,
22:24:57:19,6338,24.5625,-0.99394   0.0024527   0.0012548    -0.10988,-0.295156     -0.11203      12.6175,0.083984    0.017776     0.03363,-1.499      2.3008     0.26074,-0.94043       2.5293      10.0625,0  0  0,24.78585      120.9973      143.2796,0.6694336    -0.6689453      143.2796,-53,6.5,
22:24:57:53,6339,24.5625,-0.99284  0.00032639   0.0015912    -0.11941,-0.0589069    -0.176563      13.7163,-0.83154     0.50635  -0.0013113,1.3203      3.7441      7.3516,2.13867      3.16406      17.1719,0  0  0,24.78586      120.9973      143.3088,0.6674805    -0.3710938      143.3088,-53,7,
22:24:57:87,6340,24.5625,-0.99253   0.0027394   0.0023014    -0.12195,-0.34373    -0.223467      14.0098,0.18921     0.12048 -0.00037742,0.18518     -1.5645     0.71338,-0.1698     -1.60547         10.5,0  0  0,24.78586      120.9973      143.2374,0.6987305    -0.6420898      143.2374,-55,6.25,
22:24:58:21,6341,24.5313,-0.99065   0.0027429   0.0012603    -0.13638,-0.331068    -0.100209      15.6768,-0.029068     0.02536     0.11987,-0.15515     0.38623     -1.9521,-0.031921     0.36646      7.8398,0  0  0,24.78586      120.9973      143.3066,0.706543    -0.6645508      143.3066,-59,6.75,
22:24:58:55,6342,24.5313,-0.98794   0.0038207   0.0030275    -0.15474,-0.486237    -0.274999      17.8049,-0.070068   -0.051849     0.10223,0.59326      0.4502       1.792,0.765625     0.140259      11.5781,0  0  0,24.78587      120.9973       143.276,0.7382813    -0.6459961       143.276,-59,6.25,
22:24:58:89,6343,24.5313,-0.98742   0.0022593   0.0020627    -0.15808,-0.293003    -0.192474      18.1912,-0.073914   -0.049683   -0.080078,-0.1236      0.1283     -1.1318,-0.04306     0.10992      8.6563,0  0  0,24.78587      120.9973       143.241,0.730957    -0.6015625       143.241,-71,6,
22:24:59:23,6344,24.5781,-0.98865   0.0023309    0.004415    -0.15015,-0.340043    -0.460078      17.2723,-0.011002    -0.16101    0.037262,1.2744     -1.8184     0.74805,0.77832     -2.17773      10.5156,0  0  0,24.78587      120.9973      143.2544,0.7143555    -0.6782227      143.2544,-64,6.5,
22:24:59:57,6345,24.5781,-0.98717    0.002124   0.0020156    -0.15962,-0.277142    -0.189156      18.3705,0.091064    0.071411    0.042725,0.39966     -1.4775    -0.29102,-0.061432     -1.5654      9.4922,0  0  0,24.78588      120.9973      143.2153,0.730957    -0.6845703      143.2153,-66,5.5,
22:24:59:91,6346,24.5781,-0.98868 -0.00043701   0.0031546    -0.14998,-0.00470577    -0.364917      17.2514,0.066223    0.065002    -0.10394,0.69873    -0.15967     -1.4707,0.66895    -0.35425      8.3125,0  0  0,24.78588      120.9973      143.1664,0.7026367    -0.6782227      143.1664,-75,6.25,
22:25:00:25,6347,24.6094,-0.98993  -0.0056059  -0.0032551    -0.14142,0.688688     0.278402      16.2618,-0.11621    -0.30859   -0.029205,-7.2969      6.7813     -5.9961,-5.1133      8.5938      3.6934,0  0  0,24.78588      120.9973      143.1378,0.6010742    -0.6635742      143.1378,-69,6.25,
22:25:00:59,6348,24.6094,-0.99023   0.0018717    0.004585    -0.13934,-0.285608    -0.490396      16.0203,0.043182   -0.096802  -0.0015783,1.5166     -1.3105    -0.10858,1.1885     -1.7227      9.6641,0  0  0,24.78588      120.9973      143.0578,0.6318359    -0.7373047      143.0578,-74,6.5,
22:25:00:93,6349,24.6094,-0.99138   0.0013695   0.0016095    -0.13097,-0.179738    -0.162298      15.0517,0.091187    0.013504     -0.1214,-1.74707     -3.57813      -10.625,-2.6152     -3.0039    -0.83789,0  0  0,24.78589      120.9973      142.9557,0.605957    -0.7573242      142.9557,-71,6,
22:25:01:27,6350,24.6094,-0.9921  0.00089488    0.001137    -0.12543,-0.118078      -0.1164      14.4112,0.042725    0.079773   -0.020142,1.0049     -1.0674     -2.0898,0.71826     -1.2959      7.6953,0  0  0,24.78589      120.9973      142.9341,0.5849609    -0.7373047      142.9341,-72,5.75,
22:25:01:61,6351,24.6094,-0.99329   0.0014154  -0.0023395    -0.11558,-0.130122     0.285034      13.2734,-0.0072556      0.5957     -0.1214,-0.17786     -2.0957      1.1279,-0.77002     -2.02539      10.9063,0  0  0,24.78589      120.9973      142.8663,0.5766602    -0.7724609      142.8663,-77,5.25,
22:25:01:95,6352,24.6094,-0.99395   0.0015589 -0.00091175    -0.10979,-0.166083      0.12346      12.6061,0.0087509     0.18677  -0.0078354,0.31763      1.1816      1.8389,0.522461      1.05176      11.6328,0  0  0,24.78589      120.9973      142.8362,0.5273438    -0.7734375      142.8362,-74,6,
22:25:02:29,6353,24.625,-0.99081  -0.0012532   -0.010676    -0.13483,0.307296      1.19282      15.5013,0.23938    0.031082   -0.001709,-11.3672      3.47266     -3.03125,-10.1719       6.4375      6.49609,0  0  0,24.7859      120.9973      142.7465,0.4902344    -0.7363281      142.7465,-73,6.5,
22:25:02:63,6354,24.625,-0.98981  -0.0006174 -0.00066946     -0.1424,0.0809514    0.0658586      16.3731,0.028168   -0.010811    0.015854,-0.27197    0.069031     0.48047,-0.250977     0.160645      10.2656,0  0  0,24.7859      120.9973      142.6422,0.5375977    -0.7973633      142.6422,-70,6.25,
22:25:02:97,6355,24.625,-0.98948 -0.00033714  -0.0026219    -0.14466,0.0816892       0.2917       16.635,-0.082886      0.1098   -0.065979,0.37793    -0.26538      4.0664,0.202148     -0.35376      13.8594,0  0  0,24.7859      120.9973      142.6296,0.5205078    -0.7568359      142.6296,-66,5.75,
22:25:03:32,6356,24.625,-0.99018  0.00048455 -5.9683e-05    -0.13978,-0.0540241    0.0145333        16.07,-0.0055962    0.068359   -0.036194,-0.11139    -0.80176    -0.80859,-0.33618    -0.74854      8.9766,0  0  0,24.7859      120.9973      142.5749,0.5078125    -0.8232422      142.5749,-73,5.5,
22:25:03:66,6357,24.625,-0.99104  0.00061721   0.0014338    -0.13352,-0.0920321    -0.153391      15.3465,-0.0072174    0.054199    -0.02533,0.23718   -0.066589      2.3945,0.238525    -0.147095      12.1797,0  0  0,24.78591      120.9973      142.5422,0.463623    -0.7919922      142.5422,-66,6.5,
22:25:04:00,6358,24.625,-0.99083 -0.00090807   0.0044704    -0.13506,0.0339168    -0.521634      15.5241,0.010109   0.0043602    0.011681,-0.045349     -0.9917     -2.0273,-0.23816    -0.93799      7.7656,0  0  0,24.78591      120.9973      142.5705,0.432373    -0.7617188      142.5705,-64,6,
22:25:04:33,6359,24.625,-0.99039 -0.00010787   0.0022084    -0.13828,-0.0227512    -0.252342      15.8964,0.026138    0.090759     0.04538,0.1825    -0.39404     -1.8613,0.096008    -0.42993      7.9258,0  0  0,24.78591      120.9973      142.5536,0.4536133    -0.8144531      142.5536,-63,6.75,
22:25:04:67,6360,24.625,-0.98961  0.00049656   0.0010216    -0.14375,-0.0731404    -0.107674      16.5303,-0.10608     0.10718     -0.0383,-0.77295     0.48364       4.082,-0.59082     0.651367       13.875,0  0  0,24.78592      120.9973      142.5555,0.4335938    -0.8261719      142.5555,-65,6.25,
22:25:05:01,6361,24.625,-0.98858 -0.00043914   0.0022666    -0.15069,0.0106104    -0.264346      17.3333,-0.020584    0.066833   -0.014076,1.123     0.51855      2.2305,1.27539     0.160278      12.0156,0  0  0,24.78592      120.9973      142.6122,0.4401855    -0.8061523      142.6122,-65,7,
22:25:05:35,6362,24.5938,-0.98879  0.00045783   0.0024319    -0.14929,-0.0934796    -0.267722      17.1718,-0.062622     0.11365    -0.04068,-0.43994     0.17346    -0.11536,-0.33374     0.27393      9.6719,0  0  0,24.78592      120.9973       142.597,0.4177246    -0.7993164       142.597,-66,6,
22:25:05:69,6363,24.5938,-0.98924   0.0016777   0.0021707    -0.14625,-0.226563    -0.217955      16.8202,-0.028183    0.037903   -0.047089,-0.79492    -0.47144      -1.001,-0.86621    -0.25854      8.7891,0  0  0,24.78592      120.9973      142.5945,0.3879395    -0.7822266      142.5945,-70,6,
22:25:06:03,6364,24.5781,-0.98987 -3.0611e-05   0.0021942    -0.14195,-0.03222    -0.249389      16.3216,-0.012848   -0.007843   -0.034821,-0.18225    -0.30957     0.49634,-0.21521     -0.25293      10.2891,0  0  0,24.78592      120.9973      142.5815,0.3813477    -0.8154297      142.5815,-64,6.5,
22:25:06:37,6365,24.5781,-0.98948   0.0010956   0.0007064    -0.14467,-0.13594   -0.0619326      16.6362,0.009285    0.085388  -0.0098801,-0.25854     0.10809      1.2129,-0.213135      0.15271           11,0  0  0,24.78593      120.9973       142.571,0.378418    -0.8178711       142.571,-62,7,
22:25:06:71,6366,24.5781,-0.98868    0.002041   0.0047691    -0.14997,-0.313206    -0.505245      17.2518,-0.016602   -0.018173    0.025803,0.73438    -0.95361    -0.45166,0.50293     -1.1816      9.3281,0  0  0,24.78593      120.9973      142.5914,0.3903809    -0.8540039      142.5914,-66,5.75,
22:25:07:05,6367,24.5938,-0.98726  0.00086228 -0.00048233    -0.15909,-0.088759    0.0702863      18.3077,0.023987     0.11823    0.012215,0.33521    -0.80371     0.88184,0.0409546    -0.881836      10.6719,0  0  0,24.78593      120.9973       142.581,0.4025879    -0.8408203       142.581,-66,5.75,
22:25:07:39,6368,24.5938,-0.98761   0.0054701   0.0015472    -0.15681,-0.646875   -0.0768158      18.0437,-0.1521    -0.16907   -0.023483,1.7236      1.1387       3.998,2.03516      0.37207      13.7891,0  0  0,24.78593      120.9973      142.5757,0.3737793    -0.8085938      142.5757,-66,6,
22:25:07:73,6369,24.5938,-0.98843   0.0023638  -0.0023877    -0.15163,-0.226249     0.311515      17.4424,-0.0018854     0.27319   -0.038757,-1.0977     0.99512      -3.752,-0.79834      1.2539      6.0352,0  0  0,24.78594      120.9973      142.5758,0.3515625    -0.8173828      142.5758,-67,6.25,
22:25:08:07,6370,24.6094,-0.98877  -0.0050247  -0.0071097    -0.14916,0.690922     0.719704      17.1617,-0.084229    -0.43701   -0.047699,-7.3203      6.2891     -4.7773,-5.1836      8.2266      4.8789,0  0  0,24.78594      120.9973      142.6012,0.2856445     -0.762207      142.6012,-68,6.75,
22:25:08:41,6371,24.6094,-0.99001   0.0016503  -0.0011254    -0.14099,-0.169037     0.154334      16.2101,-0.062744   -0.066956  -0.0071068,0.1908    -0.56348    -0.77051,0.0086899    -0.62598      9.0156,0  0  0,24.78594      120.9973      142.6233,0.309082    -0.7924805      142.6233,-69,7.75,
22:25:08:76,6372,24.6094,-0.98827 -8.9854e-05     0.00388    -0.15269,-0.0577134    -0.440979      17.5657,-0.059021   -0.067444    0.045074,-1.2129      1.8164     -2.7246,-0.54688      2.0859      7.0742,0  0  0,24.78594      120.9973       142.746,0.3183594    -0.8266602       142.746,-68,6.75,
22:25:09:10,6373,24.6406,-0.98787 -0.00062355  0.00081123    -0.15526,0.0561544    -0.102927      17.8639,-0.10992    -0.12219   -0.061188,0.51758    -0.63965      4.6836,0.341797    -0.768555      14.4688,0  0  0,24.78595      120.9973      142.8018,0.3232422    -0.8134766      142.8018,-67,6.5,
22:25:09:44,6374,24.6406,-0.98825  -0.0015408  0.00068387    -0.15282,0.162518    -0.104427      17.5803,-0.04007     0.14575   -0.013428,-0.74414  -0.0018959     0.11163,-0.70557     0.24731      9.8984,0  0  0,24.78595      120.9973      142.8014,0.329834     -0.859375      142.8014,-65,6,
22:25:09:78,6375,24.6406,-0.98876    0.000767  -0.0026437    -0.14952,-0.0416084     0.312684      17.1979,-0.033325    -0.36157    0.058105,-5.8086    -0.51514       2.293,-5.72266       1.2168      12.0703,0  0  0,24.78595      120.9973      142.8021,0.2902832    -0.8061523      142.8021,-63,6.5,
22:25:10:12,6376,24.6719,-0.98879 -0.00038881   0.0040456    -0.14924,-0.0251312    -0.465052      17.1657,-0.35059     0.60352   -0.035248,8.11719       8.5625      31.6719,10.3672        5.625      41.4688,0  0  0,24.78596      120.9973       142.742,0.3562012    -0.7714844       142.742,-63,6.5,
22:25:10:46,6377,24.6719,-0.98917   0.0031201   0.0011025    -0.14674,-0.372205   -0.0725027      16.8769,-0.081665      0.3269   -0.050293,1.582      0.3208    -0.31299,1.5898    -0.22095      9.4766,0  0  0,24.78596      120.9973      142.7452,0.3251953    -0.8251953      142.7452,-63,6.75,
22:25:10:80,6378,24.6719,-0.99005  0.00061088  -0.0014756    -0.14069,-0.0455165     0.177259      16.1751,-0.18652      1.0322   -0.088623,0.71094      2.5332      2.0137,1.22949      2.20313      11.8281,0  0  0,24.78596      120.9973      142.6932,0.3344727    -0.7788086      142.6932,-64,6.5,
22:25:11:14,6379,24.6875,-0.99036 -2.9556e-05 -0.00022035    -0.13851,0.00685152    0.0245372      15.9229,-0.16858     0.33496   -0.079407,-0.41675      1.9863      3.7051,0.0932617      2.00391         13.5,0  0  0,24.78596      120.9973      142.6734,0.3017578    -0.7851563      142.6734,-64,6.75,
22:25:11:48,6380,24.6875,-0.99051 -2.5289e-05  0.00052444    -0.13741,-0.00538733   -0.0599249      15.7958,-0.10913     0.22339   -0.053406,0.98682      2.1348      4.8711,1.51465      1.76953      14.6641,0  0  0,24.78596      120.9973      142.6928,0.3139648    -0.7910156      142.6928,-61,6.25,
22:25:11:82,6381,24.6875,-0.99138  3.4593e-05  0.00079729      -0.131,-0.015898   -0.0900558      15.0543,-0.25635     0.98535   -0.083496,2.4336      3.1895      3.8164,3.06445      2.41211      13.6406,0  0  0,24.78597      120.9973      142.6907,0.3364258    -0.8071289      142.6907,-61,6,
22:25:12:16,6382,24.7188,-0.99137  -0.0015448   0.0043036    -0.13101,0.110894    -0.512097      15.0552,-0.068726    -0.49683   -0.010193,-0.82373      3.45898      10.9141,0.393066      3.58008      20.7031,0  0  0,24.78597      120.9973      142.6965,0.2631836     -0.840332      142.6965,-60,6,
22:25:12:50,6383,24.7188,-0.99072  0.00025908    0.004573    -0.13586,-0.100614    -0.515136      15.6179,0.25684     -1.1914    0.037384,-0.97949     -1.3672      1.5928,-1.07227     -1.04297      11.4063,0  0  0,24.78597      120.9973      142.7566,0.2585449     -0.824707      142.7566,-61,6,
22:25:12:83,6384,24.7188,-0.99174  -0.0031167   0.0034778    -0.12818,0.303119    -0.441013      14.7281,0.20532     -0.2666   -0.026443,-0.81152     -1.8906     -9.6953,-1.2646     -1.6211     0.11963,0  0  0,24.78598      120.9973      142.7551,0.2666016     -0.859375      142.7551,-61,6.75,
22:25:13:17,6385,24.7031,-0.99198  -0.0024527  -0.0016724     -0.1264,0.303031     0.154581      14.5236,-0.11469     0.33691   -0.046753,-0.86621      1.0488     -1.8232,-0.62305      1.2656       7.957,0  0  0,24.78598      120.9973      142.7437,0.2897949    -0.7993164      142.7437,-63,6.75,
22:25:13:51,6386,24.7031,-0.99098  -0.0032331   0.0012383    -0.13398,0.348132    -0.190254      15.3982,-0.21985    -0.80811    0.062469,1.8115     -3.3652      1.7402,0.98291     -3.68164      11.5313,0  0  0,24.78598      120.9973      142.7848,0.2692871    -0.8374023      142.7848,-65,6,
22:25:13:85,6387,24.7031,-0.99016 -0.00066811  -0.0018897    -0.13991,0.106104     0.203708      16.0854,0.033081    -0.15552  -0.0037537,1.5176    -0.48218      3.0176,1.30078    -0.855469      12.8125,0  0  0,24.78598      120.9973      142.7639,0.3034668    -0.8413086      142.7639,-66,6,
22:25:14:20,6388,24.6406,-0.98942   0.0010756  -0.0038574      -0.145,-0.0578572     0.455224      16.6744,-0.21558    -0.26465   0.0074692,-3.2676     -1.9189     -7.3672,-3.6934     -0.9082      2.4004,0  0  0,24.78599      120.9973      142.7856,0.2873535    -0.8168945      142.7856,-65,6,
22:25:14:54,6389,24.6406,-0.98769  0.00063987  -0.0074733    -0.15621,0.0613649      0.85733      17.9755,0.19849     0.30054    0.046814,-0.012383     -2.2109     -2.1035,-0.83252     -2.0762      7.6797,0  0  0,24.78599      120.9973      142.7428,0.3530273    -0.8330078      142.7428,-64,6.25,
22:25:14:88,6390,24.6406,-0.98712  -0.0018891  -0.0054809     -0.1599,0.31413     0.585372      18.4037,-0.055939     0.14136    0.088623,-1.8428      3.3027     -2.6816,-0.78369       3.752       7.082,0  0  0,24.78599      120.9973      142.7015,0.3198242    -0.8193359      142.7015,-66,6.25,
22:25:15:22,6391,24.6406,-0.98607 -0.00091984  -0.0053277    -0.16622,0.205429       0.5845      19.1377,0.036407    0.083984    0.042938,0.60498     0.81299      1.1055,0.719238     0.612793      10.8984,0  0  0,24.786      120.9973      142.7233,0.376709    -0.8461914      142.7233,-66,6,
22:25:15:56,6392,24.6406,-0.98586   0.0010967  -0.0015476    -0.16755,-0.0941824     0.195891      19.2906,-0.14734   0.0019932   -0.068542,-0.82275       1.252     0.67627,-0.398438       1.4209      10.4688,0  0  0,24.786      120.9973      142.6646,0.3452148    -0.7910156      142.6646,-66,6,
22:25:15:90,6393,24.6563,-0.98547 -0.00063308  -0.0011727    -0.16984,0.094314     0.120106      19.5567,0.11896     0.10895   -0.007473,-0.049744    -0.54834    -0.96924,-0.25757    -0.47485      8.8203,0  0  0,24.786      120.9973      142.6094,0.3527832    -0.7797852      142.6094,-67,6,
22:25:16:24,6394,24.6563,-0.98624 -0.00015008  -0.0019075    -0.16532,0.0530972     0.212734      19.0313,0.034454    -0.03656   -0.051514,0.15747    -0.58984     -1.0205,-0.071716    -0.59766      8.7656,0  0  0,24.786      120.9973      142.6013,0.3449707    -0.7416992      142.6013,-68,6.75,
22:25:16:58,6395,24.6563,-0.98881  0.00025226  -0.0024925    -0.14913,0.0140116     0.286735      17.1535,-0.020828   -0.023514    -0.15735,-0.60938    -0.76318     0.51563,-0.85498    -0.550293      10.3047,0  0  0,24.78601      120.9973      142.5218,0.307373     -0.715332      142.5218,-68,7,
22:25:16:92,6396,24.5938,-0.99037 -0.00097479  -0.0013714     -0.1384,0.132379     0.140181       15.911,0.018799    0.011276   -0.034729,0.21655    -0.69873     0.22449,-0.00767136    -0.706055      10.0156,0  0  0,24.78601      120.9973      142.4349,0.3127441    -0.7705078      142.4349,-66,6,
22:25:17:26,6397,24.5938,-0.98957  0.00043822  -0.0029807      -0.144,-0.000507888     0.345234      16.5587,-0.0057335   -0.024155   0.0038452,0.39453     0.30737      1.1309,0.403809     0.181641      10.9219,0  0  0,24.78601      120.9973      142.4385,0.3220215    -0.7529297      142.4385,-64,6.25,
22:25:17:60,6398,24.5938,-0.99322   0.0018128  -0.0018375    -0.11623,-0.181847     0.233282      13.3489,-0.012115    -0.12817    -0.30298,-0.33936    -0.24243     0.61865,-0.41333    -0.192871      10.4063,0  0  0,24.78601      120.9973      142.3918,0.2839355    -0.7172852      142.3918,-65,6,
22:25:17:94,6399,24.6406,-0.99875  0.00079515   0.0027347   -0.049927,-0.10665    -0.30844      5.7239,-0.055573     -0.1405    -0.45532,0.91748      1.4238      5.0859,1.15137      1.29492      14.8672,0  0  0,24.78601      120.9973      142.4501,0.2159424    -0.6298828      142.4501,-67,6.5,
22:25:18:28,6400,24.6406,-0.99867   0.0025547  -0.0024553    0.051533,-0.30686     0.26589     -5.9086,-0.0035     0.15857    -0.76611,0.11499     0.40625    -0.57129,0.01342     0.36646      9.2188,0  0  0,24.78602      120.9973      142.4208,0.1429443    -0.5292969      142.4208,-70,5.5,
22:25:18:62,6401,24.6406,-0.98297   0.0032876 -0.00018268     0.18374,-0.374163   -0.0486433     -21.1753,-0.02092    -0.11011    -0.81738,-0.19348     -1.3477      2.3887,0.343018     -1.40625      12.1641,0  0  0,24.78602      120.9973      142.3901,0.06298828    -0.3740234      142.3901,-69,6.75,
22:25:18:96,6402,24.6406,-0.94683   0.0038955  -0.0033439     0.32168,-0.545937     0.219218     -37.5309,-0.051788    0.036072    -0.87256,-1.2109      1.0859    -0.54395,-1.6602    0.016953      9.2422,0  0  0,24.78602      120.9973      142.4301,-0.03244019    -0.3684082      142.4301,-69,6.25,
22:25:19:30,6403,24.6406,-0.89616    0.003313  -0.0039858     0.44371,-0.542889     0.240865     -52.6834,-0.0028191     0.12622    -0.72314,-0.77002     0.75098    -0.77881,-1.1104    -0.25024           9,0  0  0,24.78602      120.9973      142.3671,-0.1773682    -0.3666992      142.3671,-69,6.5,
22:25:19:64,6404,24.6406,-0.8448    0.005043 -0.00058407     0.53506,-0.524023    -0.252662     -64.6954,0.083923    -0.11755    -0.39014,0.74072     -1.8633     0.92627,2.0625    -0.207642      10.7031,0  0  0,24.78602      120.9973      142.2948,-0.3395996    -0.3027344      142.2948,-69,6.5,
22:25:19:98,6405,24.625,-0.80872   0.0034794  0.00070298     0.58818,-0.275066     -0.29966      -72.056,-0.024673   -0.095703    -0.31055,0.58496      -2.084      4.1211,2.25195    -0.149048      13.8984,0  0  0,24.78602      120.9973      142.3338,-0.4553223    -0.2949219      142.3338,-68,6,
22:25:20:32,6406,24.625,-0.78613  0.00098974 -1.9902e-05     0.61806,-0.0905688   -0.0683046     -76.3492,-0.067688     0.22083    -0.15588,2.1602     -1.4658      7.6445,1.91602       1.7168      17.4375,0  0  0,24.78602      120.9973      142.2845,-0.4770508    -0.2519531      142.2845,-69,6.5,
22:25:20:66,6407,24.625,-0.78714  0.00097852 -0.00038953     0.61678,-0.115793   -0.0340243     -76.1623,-0.0051384     0.12939     0.06073,1.3086    -0.41846      1.1602,0.713867      1.14746      10.9531,0  0  0,24.78602      120.9973      142.2435,-0.5063477    -0.2548828      142.2435,-68,6.75,
22:25:21:00,6408,24.5938,-0.80222   0.0025773  0.00085558     0.59702,-0.178395    -0.254976      -73.314,-0.0063782   -0.017319     0.16968,-0.072083   -0.029724    -0.84766,0.049896     -0.1059      8.9375,0  0  0,24.78602      120.9973      142.2779,-0.5249023    -0.3029785      142.2779,-67,6,
22:25:21:34,6409,24.5938,-0.81666   0.0023031  0.00035747     0.57711,-0.191888     -0.18576     -70.4953,-0.0001235   -0.024506     0.06604,0.50879   -0.018967    -0.18433,0.22266     0.44116      9.6016,0  0  0,24.78602      120.9973      142.2275,-0.5166016    -0.3544922      142.2275,-67,6,
22:25:21:68,6410,24.5938,-0.817   0.0031431  -0.0010785     0.57663,-0.365533    -0.106712     -70.4273,-0.024918     0.15759    -0.10004,0.0058479     0.83496     0.70068,-0.780762      0.21521      10.4922,0  0  0,24.78602      120.9973      142.1785,-0.5527344    -0.3967285      142.1785,-69,6.25,
22:25:22:02,6411,24.625,-0.81133    0.002582  0.00050386     0.58459,-0.206303    -0.219812     -71.5479,0.052643   -0.043976   -0.081604,-0.46704      1.9805     -2.1152,-1.9932     0.15918      7.6836,0  0  0,24.78602      120.9973      142.2248,-0.5126953    -0.3742676      142.2248,-70,6.25,
22:25:22:36,6412,24.625,-0.80374  -0.0023402  -0.0040727     0.59497,-0.0621373     0.534661     -73.0221,0.1582     0.63037   -0.068909,-5.8516      8.0547     -9.1719,-9.4141       -3.25     0.47241,0  0  0,24.78602      120.9973      142.1926,-0.5249023    -0.3669434      142.1926,-74,6.25,
22:25:22:70,6413,24.625,-0.79893   -0.001891  -0.0014012     0.60142,0.0765551     0.258606     -73.9433,-0.10931     0.40942  -0.0074234,1.1699     0.72803     -3.4688,-0.42993      1.3271      6.3164,0  0  0,24.78602      120.9973      142.2434,-0.4418945    -0.3920898      142.2434,-72,5.5,
22:25:23:04,6414,24.6094,-0.80826  -0.0012271   0.0010276     0.58882,0.182988   -0.0123838     -72.1468,0.16089    0.023407    0.077393,1.5947     -1.0508      4.2891,1.49121      1.26172      14.0703,0  0  0,24.78602      120.9973      142.2212,-0.5605469    -0.4240723      142.2212,-71,5.75,
22:25:23:38,6415,24.6094,-0.81387  -0.0014308 -0.00041407     0.58104,0.105868      0.13388     -71.0472,0.029343   -0.064758   -0.024551,0.27295    -0.53174     -1.3398,0.57813     0.10376      8.4531,0  0  0,24.78602      120.9973      142.2012,-0.5424805    -0.4501953      142.2012,-68,6.75,
22:25:23:72,6416,24.6094,-0.80792   0.0014126  0.00086141     0.58929,-0.07261    -0.175138      -72.213,-0.013313   -0.069702    -0.11932,0.78906    -0.81055      1.4502,1.05566     0.489258      11.2344,0  0  0,24.78602      120.9973      142.2627,-0.5546875    -0.4494629      142.2627,-72,5.75,
22:25:24:06,6417,24.625,-0.79403  0.00075554  -0.0031938     0.60787,-0.291217     0.237972     -74.8717,-0.024231    0.072937    -0.24597,0.46021      -0.604     0.30151,0.654297     0.234619      10.0938,0  0  0,24.78602      120.9973      142.2523,-0.4870605    -0.4260254      142.2523,-73,6.25,
22:25:24:40,6418,24.625,-0.74786  -0.0008857  -0.0048166     0.66384,-0.290514     0.480159     -83.1895,-0.0058708    0.019043    -0.61426,0.36621    0.024384    0.067993,-0.066101     0.31592      9.8594,0  0  0,24.78602      120.9973      142.2376,-0.3078613    -0.3569336      142.2376,-70,5.75,
22:25:24:74,6419,24.625,-0.65215   -0.002917  -0.0035258     0.75807,-0.0882963     0.516884     -98.5912,0.0023346   -0.031128     -0.8833,0.56055    -0.12634    -0.20142,-0.046051     0.55811      9.5859,0  0  0,24.78603      120.9973      142.2901,-0.2739258    -0.2775879      142.2901,-70,6,
22:25:25:08,6420,24.625,-0.53618  -0.0022671  -0.0051607     0.84408,-0.3598922     0.5363778     -115.1522,-0.035248    0.058258     -0.8584,-0.072083     0.28149    -0.40308,-0.31445    -0.24951      9.3828,0  0  0,24.78603      120.9973       142.277,-0.2570801    -0.1824951       142.277,-71,6,
22:25:25:42,6421,24.625,-0.42379  -0.0036024  -0.0030948     0.90575,-0.1462756     0.5241913     -129.8519,0.02594     0.17957    -0.62939,-0.77002     0.23108     -1.4375,0.23035    -0.75684      8.3516,0  0  0,24.78603      120.9973       142.278,-0.2734375   -0.04934692       142.278,-76,6.25,
22:25:25:76,6422,24.625,-0.33048  -0.0060208  -0.0027657     0.94379,-0.07110342     0.7559086     -141.4034,0.026672  -0.0039864     -0.6167,0.39575      1.3916    -0.47461,-1.2939    -0.85693      9.2969,0  0  0,24.78603      120.9973      142.3694,-0.2753906    0.09295654      142.3694,-73,6.25,
22:25:26:10,6423,24.6094,-0.22565  -0.0070858   -0.002471     0.97418,-0.09263196     0.8549294     -153.9178,-0.011063    -0.13013    -0.61621,1.0703     0.35815     0.80957,-1.2627     0.123291      10.5859,0  0  0,24.78602      120.9973      142.3648,-0.2166748     0.2180176      142.3648,-69,6.75,
22:25:26:44,6424,24.6094,-0.15175   -0.003657  -0.0023119     0.98841,-0.1982709     0.4544061     -162.5439,0.023804   -0.044586    -0.25732,-0.83447    -0.53564     0.28198,0.881836     0.230469      10.0781,0  0  0,24.78602      120.9973      142.4312,-0.1655273     0.3105469      142.4312,-72,6,
22:25:26:78,6425,24.6406,-0.13156  -0.0051204   -0.005271     0.99128,-0.5215962     0.6611198     -164.8835,-0.092163     0.24121    -0.16687,-1.6748    -0.66406      5.7539,1.57422    0.0512085      15.5703,0  0  0,24.78602      120.9973       142.425,-0.1341553     0.2849121       142.425,-74,6.25,
22:25:27:12,6426,24.6406,-0.122  -0.0044944   -0.005419     0.99251,-0.5535186     0.5869319     -165.9877,0.0078278      -0.125    0.029404,-2.0176     -1.3945      4.0977,2.17188     0.730469      13.9141,0  0  0,24.78602      120.9973      142.4207,-0.1434326     0.3671875      142.4207,-70,6.25,
22:25:27:46,6427,24.6406,-0.1337   -0.006196  -0.0056354     0.99099,-0.545075     0.7899687     -164.6362,-0.1311     0.10773     0.12341,3.6855     -1.7959      7.1055,-3.32422       2.5293       16.875,0  0  0,24.78602      120.9973      142.4602,-0.1486816     0.3862305      142.4602,-75,6,
22:25:27:80,6428,24.5781,-0.1516   -0.001016  -0.0077465     0.98841,-0.859787     0.2496492     -162.5616,-0.049438   -0.055267  0.00080061,1.6982    -0.59668    -0.32422,-1.4756     0.93164      9.4766,0  0  0,24.78602      120.9973      142.4414,-0.2041016     0.3671875      142.4414,-71,6,
22:25:28:14,6429,24.5781,-0.16401   0.0054308  -0.0064256     0.98642,-0.8284513     -0.493119     -161.1163,-0.057098   -0.090515    0.061035,-4.0039 -0.00058603      1.2412,3.89453     -1.46387      10.9688,0  0  0,24.78601      120.9973      142.4137,-0.2697754     0.3937988      142.4137,-73,5.75,
22:25:28:48,6430,24.5781,-0.17602 -0.00085011  -0.0040508     0.98438,-0.4397983     0.1776024     -159.7239,0.13892    0.049133    0.058899,-1.6436     0.70801    -0.99463,1.2646       -1.29      8.7891,0  0  0,24.78601      120.9973      142.4233,-0.3083496     0.3930664      142.4233,-74,6.5,
22:25:28:82,6431,24.5781,-0.17464  -0.0049016  -0.0029861     0.98462,-0.2388399     0.6128094     -159.8858,0.71045     0.46973    0.033325,-4.3008       7.957      4.3008,1.08398     -8.91406      14.1328,0  0  0,24.78601      120.9973      142.3777,-0.3640137     0.4299316      142.3777,-76,6.25,
22:25:29:16,6432,24.5781,-0.17451  -0.0029944  -0.0020335     0.98465,-0.1695693     0.3785338     -159.9002,0.053864   -0.071594    0.032379,1.4219      2.2305     -3.7109,-2.1367     -1.6191      6.0625,0  0  0,24.78601      120.9973      142.3476,-0.3225098     0.4267578      142.3476,-69,6.25,
22:25:29:50,6433,24.5781,-0.19001 -0.00020273  -0.0027309     0.98178,-0.3028269    0.08226976     -158.0936,0.0081558     -0.2644    0.086853,1.5547    -0.59619     -1.8818,-1.209      1.0938      7.9141,0  0  0,24.78601      120.9973      142.3904,-0.357666     0.4345703      142.3904,-75,6,
22:25:29:84,6434,24.5781,-0.19896  -0.0011778  -0.0056446     0.97999,-0.6070425     0.2609494     -157.0491,-0.0073433    -0.24817    0.023499,2.7324     0.05481     -3.1621,-2.5508      0.9458      6.6328,0  0  0,24.786      120.9973      142.3793,-0.3598633     0.3837891      142.3793,-68,6.25,
22:25:30:18,6435,24.5781,-0.20455  -0.0023664  -0.0076032     0.97882,-0.7973983     0.4436426     -156.3964,-0.044922     0.16211   0.0077896,-0.18506     0.14478     0.47534,0.01651    -0.354004      10.2578,0  0  0,24.786      120.9973      142.3645,-0.4147949      0.373291      142.3645,-67,6.75,
22:25:30:52,6436,24.5781,-0.20093  -0.0034006  -0.0057147     0.97958,-0.5632217     0.5133055     -156.8194,-0.034821   0.0075684    -0.10156,-2.2363    -0.75439       4.125,2.22852    -0.326172      13.9297,0  0  0,24.786      120.9973      142.4002,-0.4440918     0.4423828      142.4002,-70,6.25,
22:25:30:86,6437,24.5938,-0.17933  -0.0063343  -0.0018611     0.98377,-0.07964412      0.752336     -159.3384,0.16541      0.2157     -0.1261,0.041077      2.4121     -3.2266,-0.98633     -2.2402      6.5469,0  0  0,24.786      120.9973      142.3695,-0.4245605     0.4572754      142.3695,-70,6,
22:25:31:20,6438,24.5938,-0.16243  -0.0073252  0.00069388     0.98669,0.2148258     0.8153519     -161.3015,-0.10931     0.16431    -0.11243,0.59961    -0.51855    -0.71094,-0.54541     0.70703      9.0703,0  0  0,24.78599      120.9973      142.3975,-0.3986816     0.4311523      142.3975,-68,6.5,
22:25:31:54,6439,24.5938,-0.156  -0.0031449  -0.0016031     0.98775,-0.1252318     0.3846274     -162.0511,-0.025665    -0.10907    0.008461,-2.6953     -6.5703      9.1719,4.48438      5.37109           19,0  0  0,24.78599      120.9973      142.3561,-0.4150391     0.4770508      142.3561,-71,6.25,
22:25:31:88,6440,24.6094,-0.17222  -0.0065867  -0.0021596     0.98503,-0.1137903      0.786125     -160.1663,-0.052368    0.061523      0.1134,-0.96094    -0.76807     0.62939,1.0166     0.369385      10.4375,0  0  0,24.78599      120.9973      142.3101,-0.4384766     0.5258789      142.3101,-75,6.25,
22:25:32:22,6441,24.6094,-0.18993  -0.0078738  -0.0067134     0.98174,-0.5839863      1.031966     -158.1069,-0.072571     0.15942   0.0066185,0.46484     0.80322    -0.83008,-0.90527    -0.66943      8.9375,0  0  0,24.78598      120.9973      142.2906,-0.4719238     0.5419922      142.2906,-71,6,
22:25:32:56,6442,24.6094,-0.18935   -0.011124  -0.0096655      0.9818,-0.8463763      1.461354     -158.1791,-0.14038     0.31543    0.011177,1.209     -1.2285       3.459,-1.04297      1.37598        13.25,0  0  0,24.78598      120.9973      142.2389,-0.4760742     0.5527344      142.2389,-77,6,
22:25:32:90,6443,24.5938,-0.19038   -0.010751  -0.0069402     0.98163,-0.5462953      1.360909      -158.055,0.057037    -0.19958   -0.047852,0.74854      2.4453     -2.9277,-1.7559     -2.0508      6.8086,0  0  0,24.78598      120.9973      142.1764,-0.4521484     0.5043945      142.1764,-70,6,
