UTC,Pack_count,IMUTemp,q0,q1,q2,q3,Roll,Pitch,Yaw,RollRate,PitchRate,YawRate,AccX,AccY,AccZ,RealAccX,RealAccY,RealAccZ,PosX,PosY,PosZ,Long,Lat,Height,VelX,VelY,VelZ,RSSI,SNR,
22:47:17:19,10279,24.8125,0.99698   0.0018813  0.00060656   -0.077593,0.20954    0.086025     -8.9003,-0.00094843    0.010536   -0.013618,-0.00034308   0.0039711   0.0045853,-0.015572    0.039764      9.7969,0  0  0,24.78578      120.9973      144.0515,0.02008057    0.01934814      144.0515,-29,6,
22:47:17:53,10280,24.8438,0.99694   0.0019282  0.00060768   -0.078158,0.21484    0.086691     -8.9652,-0.0020542    0.013466   -0.015114,0.020615   0.0066795    0.013824,0.0042839    0.046539      9.8047,0  0  0,24.78578      120.9973      144.0932,0.01763916    0.01582336      144.0932,-28,6.25,
22:47:17:87,10281,24.8438,0.99691   0.0019246  0.00060017    -0.07851,0.21446    0.085877     -9.0057,-0.0019283     0.01284   -0.014824,0.030151    0.011101    0.013893,0.013206    0.052368      9.8047,0  0  0,24.78578      120.9973      144.1391,0.01904297      0.015625      144.1391,-28,6.25,
22:47:18:21,10282,24.8438,0.99688   0.0019295  0.00060416   -0.078935,0.21495    0.086469     -9.0546,-0.0018139    0.010338   -0.012634,0.015884   0.0064888  0.00075531,-9.5367e-06    0.045654      9.7891,0  0  0,24.78578      120.9973      144.1519,0.01651001    0.01470947      144.1519,-28,6,
22:47:18:55,10283,24.8438,0.99685   0.0018977  0.00061155   -0.079228,0.21122    0.087087     -9.0882,-0.0030918    0.013283   -0.016342,0.013245   0.0089798   0.0042801,-0.0034084    0.046936      9.7969,0  0  0,24.78578      120.9973      144.2005,0.01637268    0.01570129      144.2005,-29,6,
22:47:18:89,10284,24.8438,0.99684   0.0018781  0.00059875   -0.079474,0.20908    0.085498     -9.1165,-0.00062943   0.0098495   -0.012192,0.026184 -0.00038481      0.0186,0.011429    0.039673      9.8047,0  0  0,24.78578      120.9973      144.2564,0.01612854    0.01559448      144.2564,-30,6.5,
22:47:19:23,10285,24.8438,0.99681   0.0018581  0.00054447   -0.079763,0.20727    0.079176     -9.1497,-0.0053329    0.011726   -0.018021,0.0073776   -0.011246    0.031647,-0.0045319    0.025253      9.8203,0  0  0,24.78578      120.9973      144.2708,0.01209259    0.01596069      144.2708,-32,6.5,
22:47:19:57,10286,24.875,0.99679   0.0019156  0.00057303   -0.080001,0.21356    0.083015     -9.1771,-0.00055981    0.010338   -0.011757,0.010666    0.005352  -0.0070839,-0.0043869    0.043579      9.7813,0  0  0,24.78578      120.9973      144.3381,0.01222229    0.01537323      144.3381,-28,6.25,
22:47:19:91,10287,24.875,0.99672   0.0016567  0.00052053   -0.080899,0.18439    0.074811     -9.2804,-0.0082016   0.0059776   -0.026077,-0.041931    -0.25903     0.11816,-0.011978     -0.2312      9.9063,0  0  0,24.78578      120.9973       144.364,0.008361816  0.0009860992       144.364,-27,6.25,
22:47:20:25,10288,24.875,0.99694 -2.9895e-05  0.00013793   -0.078131,-0.0046502     0.01549     -8.9623,-0.0032234   0.0086899    0.031555,-0.042999    -0.59229    0.024872,0.04718    -0.59277      9.8125,0  0  0,24.78578      120.9973      144.3874,-0.006160736   -0.08306885      144.3874,-27,6.5,
22:47:20:58,10289,24.8594,0.99718  0.00050861  -0.0011029   -0.075068,0.067605    -0.12165     -8.6103,0.005352    0.065613   0.0055656,0.45581    -0.57178    -0.16223,0.55127    -0.48511       9.625,0  0  0,24.78578      120.9973      144.3957,-0.003223419    -0.2419434      144.3957,-26,6.5,
22:47:20:93,10290,24.8594,0.99912  0.00081726 -0.00095688   -0.041999,0.098174    -0.10562     -4.8143,-0.0029964    0.029053     0.09845,0.63135    -0.37329     0.22339,0.676758    -0.302734      10.0156,0  0  0,24.78578      120.9973      144.4039,0.0007052422    -0.3574219      144.4039,-27,6.5,
22:47:21:27,10291,24.8594,0.99938   0.0033724 -0.00027362   -0.035116,0.38732   -0.017764      -4.025,0.027359   -0.033386    -0.16772,-0.9834     0.50684     -1.4082,-1.0107     0.49438       8.375,0  0  0,24.78578      120.9973       144.443,0.01673889    -0.3669434       144.443,-27,6.25,
22:47:21:61,10292,24.8594,0.99948    0.002243  -0.0018569    -0.03214,0.26373    -0.20441     -3.6841,-0.0094299    0.035126   -0.025345,0.63037     0.19788     0.18726,0.6499      0.2832      9.9766,0  0  0,24.78579      120.9973      144.5184,0.03408813    -0.4238281      144.5184,-28,6.25,
22:47:21:95,10293,24.8594,0.99972  4.8976e-05  -0.0026805   -0.023332,0.012777    -0.30695     -2.6739,0.07019   -0.067017   -0.020264,-0.01046     -1.7158   -0.065369,0.12939     -1.7051      9.7266,0  0  0,24.78579      120.9973      144.5856,0.04910278     -0.503418      144.5856,-30,6.25,
22:47:22:29,10294,24.8594,1  0.00034587  0.00014339  -0.0027832,0.039587    0.016542    -0.31893,0.011856   0.0053444    0.038452,0.0057793     -0.4353   -0.036102,0.0057411    -0.42725        9.75,0  0  0,24.78579      120.9973      144.6594,0.08215332    -0.5825195      144.6594,-32,6.5,
22:47:22:63,10295,24.8594,0.99987  0.00067261  -0.0001417    0.015884,0.076807    -0.01746      1.8202,0.026459   -0.040161    0.039917,-0.39404     0.69287     0.15649,-0.36328     0.72168      9.9453,0  0  0,24.78579      120.9973      144.6813,0.107605    -0.5200195      144.6813,-34,6,
22:47:22:97,10296,24.8594,0.99968  -0.0013011   5.972e-05    0.025412,-0.14887     0.01063      2.9123,-0.0026016   -0.044861  -0.0048981,0.70117      1.5479     0.43652,0.782715       1.4834      10.2266,0  0  0,24.78579      120.9973      144.6704,0.1433105    -0.5083008      144.6704,-35,6.25,
22:47:23:31,10297,24.8281,0.99983  0.00035664   0.0011827    0.018409,0.043355     0.13475      2.1096,0.01947     0.15686   -0.043304,-0.28027     0.11957    -0.26099,-0.31201     0.13892      9.5234,0  0  0,24.78579      120.9973       144.702,0.1694336    -0.5698242       144.702,-35,6.25,
22:47:23:65,10298,24.8281,0.99951   0.0015514   0.0016895    0.031112,0.18371     0.18798       3.566,-0.0085831      0.1004   -0.023041,0.27197     0.73633     -0.1051,0.27686     0.74854      9.6797,0  0  0,24.7858      120.9973      144.7227,0.2070313    -0.6416016      144.7227,-37,6.75,
22:47:23:99,10299,24.8281,0.99978    0.002468    0.002454    0.020915,0.28864     0.27523      2.3975,-0.021164     0.19446   -0.079712,0.96777      1.6484     0.49561,0.966309      1.65625      10.2813,0  0  0,24.7858      120.9973      144.7538,0.2150879      -0.59375      144.7538,-38,7,
22:47:24:33,10300,24.8281,0.99986   0.0014873   0.0038775    0.016236,0.17762      0.4415      1.8613,0.12317    0.027298   -0.070557,-0.12732    -0.23926    -0.34302,-0.20923    -0.19397      9.4453,0  0  0,24.7858      120.9973      144.7831,0.2116699    -0.5844727      144.7831,-39,6.25,
22:47:24:67,10301,24.8281,0.9999  0.00041613   0.0022957    0.013695,0.051284     0.26239      1.5695,-0.0094833  0.00042248   0.0078354,-1.0449    -0.59033    -0.82324,-1.1006    -0.55371      8.9609,0  0  0,24.7858      120.9973      144.7947,0.2208252     -0.597168      144.7947,-41,6.75,
22:47:25:01,10302,24.8281,0.99986   0.0011879   0.0008977    0.016563,0.13781      0.1006      1.8982,0.088684    0.058594   0.0086975,-1.1592       -1.75     -1.9385,-1.2344     -1.6846      7.8555,0  0  0,24.7858      120.9973      144.8039,0.2338867    -0.6098633      144.8039,-43,6.25,
22:47:25:35,10303,24.8281,0.99978   0.0047483  0.00083448    0.020642,0.54597    0.084371       2.366,0.17871    0.070679  -0.0015478,-0.44385     0.75684    -0.92578,-0.43042       0.875      8.8516,0  0  0,24.7858      120.9973      144.8209,0.2498779    -0.5546875      144.8209,-43,6.5,
22:47:25:69,10304,24.8281,0.99976  8.1671e-05   0.0035856    0.021574,0.018221     0.41058      2.4724,-0.10962    0.041077   -0.017502,0.55371     0.10358   -0.035248,0.48511    0.072144      9.7578,0  0  0,24.78581      120.9973       144.795,0.2709961    -0.5371094       144.795,-43,5.75,
22:47:26:03,10305,24.8281,0.99976  -0.0022901   0.0017321    0.021716,-0.25806     0.20414      2.4883,0.0060501   -0.039337  -0.0086212,1.585      1.2109      1.9658,1.59961      1.08887      11.7656,0  0  0,24.78581      120.9973      144.7373,0.2854004    -0.5756836      144.7373,-44,6.5,
22:47:26:37,10306,24.7969,0.99964  6.6722e-05   -0.002179    0.026843,0.0009406    -0.24981      3.0763,0.0053253  -0.0058441   0.0080566,0.80322    -0.36743   -0.035522,0.82666    -0.40918        9.75,0  0  0,24.78581      120.9973      144.6441,0.2983398    -0.5595703      144.6441,-44,6.25,
22:47:26:71,10307,24.7969,0.9995   0.0016896 -3.1144e-05    0.031528,0.19341  -0.0096714      3.6135,0.0048904   -0.024506   0.0094681,0.23071    -0.27197    0.093384,0.21826    -0.25195      9.8828,0  0  0,24.78581      120.9973       144.529,0.314209    -0.5244141       144.529,-44,6,
22:47:27:05,10308,24.7969,0.99937   0.0034759   0.0022318     0.03536,0.40711      0.2415      4.0537,-0.015839     0.14807    0.027451,-0.024063    -0.20203    -0.78467,-0.088623    -0.13708      9.0078,0  0  0,24.78581      120.9973      144.4573,0.3327637     -0.527832      144.4573,-46,5.75,
22:47:27:39,10309,24.7969,0.99921   0.0019149  -0.0017978    0.039567,0.21111    -0.21454      4.5348,0.00084257   0.0024033 -0.00011623,0.90088     0.57324      1.0186,0.984863     0.540039      10.8047,0  0  0,24.78582      120.9973       144.392,0.3566895    -0.5825195       144.392,-46,6.75,
22:47:27:73,10310,24.7969,0.99912   0.0023051  0.00088604    0.041846,0.26817     0.09039      4.7968,0.044159     0.16577   -0.037445,-0.8125    0.015617   -0.034515,-0.83887     0.13354        9.75,0  0  0,24.78582      120.9973      144.3252,0.3510742    -0.6108398      144.3252,-50,6.25,
22:47:28:07,10311,24.7969,0.9991    0.001103  -0.0022103     0.04226,0.11558     -0.2584      4.8439,0.087219   -0.081116   0.0041962,0.64893     -1.4639     -1.6289,0.56689     -1.4902      8.1641,0  0  0,24.78582      120.9973      144.2916,0.3608398    -0.6069336      144.2916,-54,6.5,
22:47:28:41,10312,24.7656,0.99893  0.00073281   0.0019041    0.046311,0.093989     0.21407       5.309,-0.034729   -0.073425  0.00083017,-0.31738    -0.97266    -0.50684,-0.43286    -0.92725      9.2813,0  0  0,24.78582      120.9973      144.2795,0.3723145    -0.5727539      144.2795,-56,6,
22:47:28:75,10313,24.7656,0.99876   0.0015036   0.0013337    0.049713,0.17968     0.14407      5.6993,0.052582    0.016754  -0.0040703,-0.47461     -1.4639    -0.82178,-0.64063      -1.376      8.9688,0  0  0,24.78583      120.9973      144.3011,0.3864746    -0.5981445      144.3011,-63,7,
22:47:29:08,10314,24.7656,0.99893   0.0037478   0.0015077     0.04602,0.43697     0.15282       5.276,0.19678   -0.016617   -0.061676,-0.5127    -0.65088    -0.84326,-0.5918    -0.51514      8.9531,0  0  0,24.78583      120.9973       144.345,0.4013672    -0.6396484       144.345,-53,6.5,
22:47:29:43,10315,24.7188,0.99936   0.0017934  -0.0010715    0.035643,0.201    -0.13003       4.085,-0.059692     -0.1886    -0.11578,-0.026855   -0.056793     0.51904,0.0131989   -0.0245361      10.3047,0  0  0,24.78583      120.9973      144.3795,0.3774414    -0.6538086      144.3795,-52,6.75,
22:47:29:77,10316,24.7188,0.99975   0.0016875   0.0018707    0.022071,0.19805     0.21004      2.5298,-0.088745   -0.041443    -0.11414,-1.0488     0.50537   -0.077698,-1.0566      0.5752      9.7031,0  0  0,24.78583      120.9973      144.4298,0.375    -0.6196289      144.4298,-50,6,
22:47:30:11,10317,24.7188,0.99996  0.00075492   0.0027893   0.0086779,0.089279     0.31887     0.99467,0.098145     0.04953   -0.069214,-1.3477    -0.89502    -0.39355,-1.418    -0.84814      9.3906,0  0  0,24.78583      120.9973      144.5003,0.3693848    -0.6430664      144.5003,-51,5.75,
22:47:30:45,10318,24.7031,0.99994   0.0016391   0.0013742    0.011113,0.18957     0.15537      1.2738,0.022507     0.15674    0.026871,1.3506      0.8252     0.51709,1.32617     0.831055      10.3125,0  0  0,24.78584      120.9973      144.5737,0.3818359    -0.6455078      144.5737,-52,6.5,
22:47:30:79,10319,24.7031,0.99972   0.0018772  3.3074e-05     0.02372,0.21514  -0.0013137      2.7184,0.002552    0.040192    0.085815,-0.20032      1.0215     0.24121,-0.153198      1.06836      10.0234,0  0  0,24.78584      120.9973      144.6798,0.3828125    -0.6357422      144.6798,-53,6.75,
22:47:31:13,10320,24.7031,0.99928   0.0016895  7.1397e-05    0.037925,0.19377  0.00083331       4.347,-0.092529   -0.034271    0.083618,-0.52295     0.34399     -1.0557,-0.49121     0.40479      8.7344,0  0  0,24.78584      120.9973      144.7694,0.4082031    -0.5839844      144.7694,-53,7,
22:47:31:47,10321,24.6875,0.99818   -0.010377    -0.01172    0.058209,-1.2655     -1.2714      6.6889,0.11371    -0.38696    0.025345,3.4902     -3.4277      1.6523,3.36328     -4.05078      11.2734,0  0  0,24.78584      120.9973       144.817,0.4055176    -0.5722656       144.817,-53,6.25,
22:47:31:81,10322,24.6875,0.99804  0.00083214  -0.0010055    0.062589,0.087958    -0.12096      7.1768,0.25317     0.08783   -0.078186,-2.1934      1.3232    -0.44238,-1.999       1.623      9.3438,0  0  0,24.78584      120.9973      144.8557,0.4370117    -0.6357422      144.8557,-53,6.25,
22:47:32:15,10323,24.6875,0.99792    0.025644 -4.6294e-05    0.059094,2.9335    -0.17895      6.7733,0.77393      0.2771   -0.051727,1.6787      2.8262     -3.1699,2.0039      2.9941      6.4531,0  0  0,24.78585      120.9973      144.8346,0.4367676    -0.4641113      144.8346,-53,7.25,
22:47:32:49,10324,24.6563,0.99879  -0.0006761  -0.0036365    0.049093,-0.097841     -0.4124      5.6283,0.044403   -0.050629   -0.083191,0.33569     -1.6162     0.23718,0.254883     -1.65332      10.0234,0  0  0,24.78585      120.9973      144.8793,0.404541    -0.5981445      144.8793,-53,6.5,
22:47:32:83,10325,24.6563,0.9977  0.00011862  -0.0024086    0.067754,-0.0051394     -0.2763        7.77,0.040405     0.13391     0.19495,-0.08136    -0.38403    -0.67725,-0.10052    -0.36621      9.1094,0  0  0,24.78585      120.9973       144.929,0.4130859    -0.6870117       144.929,-54,6,
22:47:33:17,10326,24.6563,0.99534 -0.00059081  -0.0034934    0.096326,-0.105949    -0.391926      11.0558,0.033112    -0.14832    0.059265,-0.038544    -0.69629     -1.2441,-0.099854    -0.68896      8.5469,0  0  0,24.78585      120.9973      144.9284,0.4169922     -0.621582      144.9284,-56,6.25,
22:47:33:51,10327,24.6094,0.99522  -0.0016709  -0.0025592     0.09761,-0.219181    -0.273173      11.2037,-0.18591    -0.15845   -0.091003,0.4187     0.48267      2.2363,0.582031     0.324463      12.0234,0  0  0,24.78586      120.9973        144.96,0.4350586    -0.5869141        144.96,-57,6.5,
22:47:33:85,10328,24.6094,0.9963  0.00042756  0.00013127    0.085975,0.050106    0.010774      9.8642,-0.075378     0.14185   -0.073792,-1.4453     0.56934     -1.2354,-1.3398     0.80908      8.5547,0  0  0,24.78586      120.9973      145.0074,0.4335938    -0.5996094      145.0074,-60,6.5,
22:47:34:19,10329,24.5625,0.99596   0.0013989  -0.0037384    0.089743,0.121209    -0.441052      10.2972,-0.1004   -0.012764    0.026276,0.39941      3.0254      1.8145,1.02734      2.91797      11.5938,0  0  0,24.78586      120.9973      145.0163,0.4243164    -0.6425781      145.0163,-59,6,
22:47:34:53,10330,24.5625,0.99469    0.001682    -0.00404     0.10286,0.144106    -0.480316      11.8073,-0.011917    0.091858    0.019196,0.71582    -0.13184     0.12238,0.74854    -0.25171      9.9063,0  0  0,24.78586      120.9973      145.0335,0.4404297    -0.5947266      145.0335,-60,6.5,
22:47:34:87,10331,24.5625,0.99433    0.003141  -0.0022239     0.10625,0.330818    -0.291636      12.1972,0.0038586   -0.083618   -0.020889,-0.43555     0.45313    -0.53271,-0.27393     0.58887      9.2578,0  0  0,24.78586      120.9973      145.0068,0.4418945    -0.5893555      145.0068,-59,6.25,
22:47:35:21,10332,24.5469,0.99414    0.002055  -0.0035925     0.10799,0.189655    -0.434697      12.3979,0.12061     0.11047  0.00067472,-0.51709    -0.27612     0.85742,-0.493896    -0.110413      10.6484,0  0  0,24.78587      120.9973      144.9275,0.4404297    -0.5917969      144.9275,-64,6.5,
22:47:35:55,10333,24.5469,0.99387  0.00072856  -0.0029799      0.1105,0.0452448    -0.348601      12.6881,-0.27393    -0.14709    -0.16016,0.51221      2.7559    -0.52832,1.1719      2.5605      9.2578,0  0  0,24.78587      120.9973      144.9462,0.4350586    -0.5668945      144.9462,-63,6.5,
22:47:35:89,10334,24.5469,0.99266   0.0008711  -0.0024619     0.12095,0.064968     -0.29211      13.8934,0.070862    0.048676    0.051392,-0.32202    -0.24146     0.23804,-0.323242    -0.138184      10.0313,0  0  0,24.78587      120.9973       144.987,0.439209    -0.5917969       144.987,-62,6.5,
22:47:36:23,10335,24.5625,0.98976   0.0016067  -0.0026639     0.14274,0.138655    -0.328419      16.4128,0.036377    0.043884    0.064941,-0.43481     0.33789     -0.3811,-0.27051     0.47363      9.4063,0  0  0,24.78587      120.9973      145.0016,0.4375    -0.5996094      145.0016,-66,5.75,
22:47:36:57,10336,24.5625,0.98673   0.0011765  -0.0035933     0.16232,0.066192    -0.428181      18.6833,0.01973    -0.07019    0.057709,0.47583    -0.26685    -0.30078,0.4436    -0.39258      9.4844,0  0  0,24.78587      120.9973      145.0601,0.4619141    -0.6254883      145.0601,-70,5.75,
22:47:36:91,10337,24.5625,0.98555   0.0012172  -0.0011271     0.16939,0.115588    -0.150911      19.5043,0.022659   -0.095032   -0.033936,-0.091797     0.19031  -0.0077553,0.01313     0.23218      9.7813,0  0  0,24.78588      120.9973       145.086,0.4470215    -0.6206055       145.086,-65,5.75,
22:47:37:25,10338,24.5313,0.98575  0.00075551  -0.0020839     0.16818,0.0451807    -0.249956      19.3645,-0.096985   -0.014267   -0.031799,1.5518     0.71875     0.66748,1.75     0.161987      10.4453,0  0  0,24.78588      120.9973      145.1108,0.4448242    -0.5849609      145.1108,-63,6.5,
22:47:37:59,10339,24.5313,0.98717  0.00047732  0.00055447     0.15968,0.0641403     0.053989      18.3762,0.12195   -0.048431     -0.1615,0.25488     0.87451     0.26929,0.513184     0.773926      10.0547,0  0  0,24.78588      120.9973      145.0379,0.4338379    -0.5844727      145.0379,-63,6.5,
22:47:37:93,10340,24.5313,0.99095  -0.0065345   0.0033846     0.13401,-0.690089     0.484694      15.4001,0.27246      1.2891    -0.24854,4.5703      -4.582      3.1934,2.92773     -5.74609      12.9922,0  0  0,24.78588      120.9973      145.0356,0.4765625       -0.5625      145.0356,-62,6.5,
22:47:38:27,10341,24.4375,0.99298   0.0023322  0.00067994     0.11826,0.274586    0.0457641      13.5832,0.052246  -0.0069275   -0.069946,0.16479      1.2939     0.67041,0.457031      1.27441      10.4531,0  0  0,24.78588      120.9973      145.0205,0.3742676    -0.5922852      145.0205,-71,6.5,
22:47:38:61,10342,24.4375,0.99288   0.0042433 -0.00078257     0.11904,0.47212    -0.146923      13.6735,0.06189   -0.063232    0.042572,0.92334    -0.45386    -0.24561,0.8208     -0.5752      9.5469,0  0  0,24.78589      120.9973        144.98,0.3601074    -0.5883789        144.98,-64,6.25,
22:47:38:95,10343,24.4375,0.99111   0.0034376 -0.00028649     0.13301,0.386049   -0.0849338      15.2874,0.027069   -0.036926   -0.019287,-0.32471     0.30908    -0.24976,-0.21301     0.45093      9.5391,0  0  0,24.78589      120.9973      144.9183,0.3410645    -0.5917969      144.9183,-70,6.5,
22:47:39:29,10344,24.4063,0.99104   0.0015674 -0.00029219     0.13357,0.173528   -0.0571738      15.3523,-0.054565    0.012283   -0.038666,0.771      0.1427    -0.11328,0.79053   -0.042145      9.6719,0  0  0,24.78589      120.9973      144.8723,0.3740234     -0.637207      144.8723,-68,6.25,
22:47:39:63,10345,24.4063,0.99112  0.00032808   -0.002215     0.13299,0.00350679    -0.256564      15.2844,-0.036072    0.051819   -0.015282,0.1615    -0.80078     0.30859,-0.0142136    -0.817871      10.0938,0  0  0,24.78589      120.9973      144.8256,0.3703613    -0.6518555      144.8256,-78,5.25,
22:47:39:97,10346,24.4063,0.99044  0.00082817  -0.0043289     0.13788,0.0255966    -0.504405      15.8508,-0.097717    -0.11865   -0.010834,1.0342     0.46826      1.3818,1.23633     0.162109      11.1563,0  0  0,24.7859      120.9973      144.7578,0.3479004    -0.5898438      144.7578,-68,6.5,
22:47:40:31,10347,24.4063,0.98928   0.0026511  -0.0062053      0.1459,0.196809    -0.747796      16.7781,0.036621  -0.0083923    0.008316,-0.22693     0.19373     0.55225,-0.0242004     0.290527      10.3438,0  0  0,24.7859      120.9973      144.6942,0.3518066    -0.6206055      144.6942,-66,6.25,
22:47:40:65,10348,24.4063,0.98774   0.0022686  -0.0029848     0.15604,0.203417    -0.378404      17.9533,-0.0098801    0.071655    0.028397,-0.16187     0.10516     0.26685,-0.0611572     0.184814      10.0547,0  0  0,24.7859      120.9973      144.6451,0.3408203     -0.605957      144.6451,-64,6.25,
22:47:40:99,10349,24.4063,0.98558   0.0017391   -0.002759      0.1692,0.142918    -0.345321      19.4823,0.031403  -0.0074387    0.055969,0.10931     0.36426     0.11359,0.28638     0.33472      9.8984,0  0  0,24.7859      120.9973       144.617,0.3400879    -0.6157227       144.617,-64,6.25,
22:47:41:33,10350,24.4219,0.98406   0.0030243  9.0384e-05      0.1778,0.342881   -0.0514268      20.4834,0.22009     0.40576    0.030792,-0.39771   -0.027542     -5.4492,-0.39551     0.14917      4.3398,0  0  0,24.7859      120.9973      144.5898,0.3852539    -0.6020508      144.5898,-67,6,
22:47:41:67,10351,24.4219,0.98324   0.0024158  -0.0019113      0.1823,0.232261    -0.265817      21.0074,-0.032654    0.016205   0.0036697,-0.98242    -0.86963     -1.2119,-1.1895    -0.42725      8.5859,0  0  0,24.78591      120.9973      144.5694,0.3544922     -0.684082      144.5694,-68,6.5,
22:47:42:01,10352,24.4219,0.98181   0.0017309  -0.0037732     0.18981,0.112676    -0.462161      21.8833,-0.046082   -0.028519   2.265e-06,-0.12091     0.18604     -0.5542,0.035339     0.23169      9.2344,0  0  0,24.78591      120.9973      144.5643,0.3452148    -0.6401367      144.5643,-67,6.5,
22:47:42:35,10353,24.4688,0.9811 -6.0743e-05  -0.0038732     0.19348,-0.0927051    -0.434109      22.3121,-0.042877    0.029388   -0.013138,0.36157    -0.83057    0.047852,0.091858    -0.92578      9.8359,0  0  0,24.78591      120.9973      144.5345,0.3461914    -0.6835938      144.5345,-68,6.5,
22:47:42:69,10354,24.4688,0.98009   0.0011489  -0.0013601     0.19853,0.0980924    -0.178889      22.9022,-0.022461   -0.017349   -0.013718,-0.75977    -0.65869    -0.93213,-0.92627    -0.29761      8.8594,0  0  0,24.78591      120.9973      144.4925,0.338623    -0.6860352      144.4925,-65,6,
22:47:43:03,10355,24.4688,0.98063   0.0023217  -0.0029601     0.19585,0.194466    -0.384744      22.5883,-0.11353    -0.06189   -0.018372,0.18457     0.18005     0.96729,0.31958     0.119873      10.7578,0  0  0,24.78592      120.9973      144.4644,0.3352051    -0.6884766      144.4644,-63,6.5,
22:47:43:37,10356,24.4531,0.98096 -0.00021434  -0.0030018      0.1942,-0.0908967    -0.332667      22.3961,0.0088043   -0.036957   -0.034973,1.1553    -0.73926    -0.09668,0.84766     -1.1377      9.6875,0  0  0,24.78592      120.9973      144.4557,0.3310547    -0.6801758      144.4557,-62,6,
22:47:43:71,10357,24.4531,0.98128 -0.00018556  -0.0053312     0.19254,-0.138495    -0.595392      22.2026,-0.28369   -0.084839    0.018066,0.58105      3.4902      4.5859,2.02148      2.93555      14.3672,0  0  0,24.78592      120.9973      144.4725,0.3059082    -0.6303711      144.4725,-62,6.25,
22:47:44:05,10358,24.4531,0.98085   0.0011751  -0.0012382     0.19475,0.104449    -0.165398      22.4597,0.00077868    0.025543   -0.038483,-0.64453    -0.45093    -0.16772,-0.7417    -0.15283       9.625,0  0  0,24.78592      120.9973      144.5309,0.3127441    -0.6801758      144.5309,-67,5.5,
22:47:44:39,10359,24.4688,0.98188  -0.0001899 -0.00060924     0.18953,-0.0345983    -0.064424      21.8503,-0.0097809    0.059479    -0.04895,-0.35474    -0.88086    -0.45996,-0.65088    -0.69238      9.3281,0  0  0,24.78592      120.9973      144.5863,0.2702637    -0.6362305      144.5863,-64,6.25,
22:47:44:73,10360,24.4688,0.98174  -0.0018858   0.0026285     0.19021,-0.154864     0.336814      21.9293,0.013443    -0.12292   -0.053528,-1.4131    -0.20825      -1.168,-1.4277     0.31226      8.6172,0  0  0,24.78593      120.9973      144.6154,0.2459717    -0.6303711      144.6154,-72,6,
22:47:45:07,10361,24.5,0.98533 -6.2548e-05 -0.00040953     0.17066,-0.0150712   -0.0450165      19.6529,-0.1731     0.20569    -0.25854,0.10858     -5.2734     -4.6328,-1.665     -5.0156      5.1445,0  0  0,24.78593      120.9973      144.6785,0.2570801    -0.7055664      144.6785,-72,6,
22:47:45:41,10362,24.5,0.9891   0.0051168   0.0028953     0.14712,0.628784     0.241896      16.9218,0.29565     0.26929    -0.10217,-0.026611      0.7373     0.14966,0.12085     0.85156      9.9297,0  0  0,24.78593      120.9973      144.7105,0.2832031    -0.7880859      144.7105,-67,5.75,
22:47:45:75,10363,24.5,0.98858   0.0023835  0.00047741     0.15068,0.278249    0.0129293      17.3324,-0.030884   -0.014709     0.05246,-0.15149    -0.25659    -0.48267,-0.22083    -0.15723      9.3047,0  0  0,24.78593      120.9973      144.7531,0.2364502    -0.7788086      144.7531,-67,6.75,
22:47:46:09,10364,24.5156,0.98463    0.002508  -0.0033601     0.17458,0.215763    -0.429296       20.108,-0.087769    0.059814     0.10968,-0.2417      1.1475      1.3232,0.246948      1.19238      11.1094,0  0  0,24.78594      120.9973      144.8007,0.2408447    -0.7270508      144.8007,-71,5.75,
22:47:46:43,10365,24.5156,0.98113   0.0028846 -0.00039978     0.19334,0.315456    -0.108854      22.2949,0.0013475    0.063354   0.0055161,0.070068     0.17737   -0.025635,0.14563     0.19153      9.7656,0  0  0,24.78594      120.9973      144.8324,0.241333    -0.6801758      144.8324,-68,6.25,
22:47:46:77,10366,24.5156,0.98122   0.0028832  -0.0014336     0.19285,0.292507    -0.224908      22.2373,0.040924   -0.055756    0.016647,0.30127    -0.14526    -0.60986,0.26611    -0.19775      9.1797,0  0  0,24.78594      120.9973       144.875,0.2568359    -0.7226563       144.875,-67,6.5,
22:47:47:11,10367,24.5156,0.97708   0.0031735  -0.0030713     0.21283,0.280424    -0.421277      24.5755,0.052917    0.071106     0.16614,1.0674      2.1992      2.1152,1.96875      1.61719      11.8828,0  0  0,24.78594      120.9973      144.9433,0.2907715    -0.7495117      144.9433,-69,6.25,
22:47:47:45,10368,24.5156,0.97462   0.0010542  -0.0010662     0.22388,0.0903838    -0.146122      25.8735,-0.0060005     0.33008   -0.026657,-1.2637    -0.39478      3.7324,-1.31738     0.216797      13.5234,0  0  0,24.78594      120.9973       144.988,0.3125    -0.7426758       144.988,-65,6,
22:47:47:79,10369,24.5156,0.97877   0.0010153  -0.0015036     0.20497,0.0785604    -0.192488      23.6553,-0.068176   -0.063721    -0.12976,0.18396      1.4736       1.501,0.804688      1.28418      11.2891,0  0  0,24.78595      120.9973      145.0462,0.2883301    -0.7607422      145.0462,-69,6,
22:47:48:13,10370,24.5313,0.98047  0.00070616  -0.0026919     0.19664,0.0186804    -0.318362      22.6817,0.069763   -0.043213  0.00016141,-0.56445     -1.6865     0.57373,-1.1084     -1.32715      10.3672,0  0  0,24.78595      120.9973      145.1082,0.2634277    -0.8198242      145.1082,-66,6,
22:47:48:47,10371,24.5313,0.97846   0.0017838  -0.0017206      0.2064,0.159308    -0.235107      23.8231,0.030563   0.0079117  -0.0082626,-1.4248      1.1758     0.26782,-0.786133      1.68262      10.0547,0  0  0,24.78595      120.9973      145.1314,0.2539063    -0.7558594      145.1314,-71,6.25,
22:47:48:81,10372,24.5313,0.97889   0.0034073  -0.0031115     0.20433,0.309361    -0.428806      23.5795,0.022202   -0.027679   -0.056488,-0.35083    -0.18091    -0.83838,-0.32349    0.024979      8.9531,0  0  0,24.78595      120.9973      145.1718,0.246582    -0.7412109      145.1718,-74,6.25,
22:47:49:15,10373,24.5469,0.97861   0.0016739  -0.0031551     0.20569,0.113349    -0.393267      23.7393,-0.042084    0.069824    0.045563,0.42163     0.29956       1.458,0.577148     0.121765      11.2422,0  0  0,24.78596      120.9973      145.2084,0.269043    -0.7807617      145.2084,-68,6.25,
22:47:49:49,10374,24.5469,0.97667   0.0042457  -0.0024926     0.21469,0.413865    -0.383423      24.7932,0.0020847   -0.068054     0.06427,-0.27148      1.0635    -0.12097,0.27271      1.1494      9.6563,0  0  0,24.78596      120.9973      145.2273,0.260498    -0.7382813      145.2273,-66,6.25,
22:47:49:83,10375,24.5469,0.97383   0.0020326  -0.0072169     0.22714,0.0389899    -0.858297      26.2576,-0.21411    -0.18689    0.084717,0.11407     -1.2773      2.2422,-0.26001     -1.21289      12.0391,0  0  0,24.78596      120.9973      145.2637,0.2172852    -0.6982422      145.2637,-65,6.25,
22:47:50:17,10376,24.5625,0.97031   0.0016999  -0.0047022     0.24181,0.0587211    -0.569954       27.987,-0.051666    -0.15051   -0.039368,0.61377     -1.0459    -0.29956,0.16113      -1.207      9.4922,0  0  0,24.78596      120.9973      145.2821,0.2607422    -0.6870117      145.2821,-64,6,
22:47:50:51,10377,24.5625,0.97326   0.0019086  -0.0062462     0.22959,0.0485265    -0.746864      26.5466,-0.042786   -0.031006    -0.12354,-0.56592   -0.095398      0.4126,-0.411621     0.171631      10.2109,0  0  0,24.78596      120.9973       145.319,0.2661133    -0.7133789       145.319,-63,6.25,
22:47:50:85,10378,24.5625,0.97637   0.0033244  -0.0029872     0.21607,0.297991    -0.416533      24.9556,0.040222   -0.029053   -0.077759,-0.55029     -1.1699    -0.86084,-0.92383     -0.7793      8.9375,0  0  0,24.78597      120.9973      145.3596,0.2375488    -0.7138672      145.3596,-65,6.5,
22:47:51:19,10379,24.5469,0.97942   0.0016656  -0.0010149     0.20184,0.16346    -0.152429      23.2895,-0.040649   -0.067078    -0.12891,0.60791    0.012917     0.55273,0.599121    -0.202271      10.3438,0  0  0,24.78597      120.9973      145.3884,0.2563477    -0.7514648      145.3884,-65,6.25,
22:47:51:53,10380,24.5469,0.98283   0.0050534 -7.3456e-06     0.18446,0.568982    -0.107643       21.259,0.062622   -0.098633   -0.097473,-0.84521     0.27222    -0.24451,-0.66064     0.66064      9.5391,0  0  0,24.78597      120.9973      145.3862,0.2344971    -0.7856445      145.3862,-65,6.25,
22:47:51:87,10381,24.5469,0.98248   0.0057875  0.00037043     0.18628,0.659505   -0.0818391      21.4718,-0.095703   -0.018799    0.060394,-0.33594      1.3545     0.47437,0.202148      1.49121        10.25,0  0  0,24.78597      120.9973      145.3747,0.2329102    -0.7915039      145.3747,-63,6.75,
22:47:52:21,10382,24.5469,0.98106   0.0038327  -0.0022215     0.19366,0.381583    -0.334799       22.332,0.36816     -0.1554    0.022186,-0.12195     0.65674      -2.834,0.18921     0.72559      6.9453,0  0  0,24.78598      120.9973      145.3505,0.2376709     -0.784668      145.3505,-65,6.25,
22:47:52:55,10383,24.5469,0.98277  -0.0013517   0.0026835     0.18482,-0.0953911     0.330841      21.3012,-0.0091629     0.12512   -0.050659,0.082275    -0.94238     -1.4482,-0.323    -0.92236      8.3359,0  0  0,24.78598      120.9973       145.331,0.2268066     -0.784668       145.331,-66,6.25,
22:47:52:89,10384,24.5469,0.98333  4.7006e-05   0.0036413     0.18182,0.0811652     0.409332      20.9518,0.13721   -0.015022   -0.066162,-1.3721     -1.3252    -0.37061,-1.8193    -0.72119      9.4063,0  0  0,24.78598      120.9973      145.3449,0.2042236    -0.7885742      145.3449,-71,6,
22:47:53:23,10385,24.5625,0.9804 -4.7728e-05   0.0035731       0.197,0.0753035     0.402506       22.724,-0.10547   0.0024757    0.046082,0.18335    -0.32715   -0.050262,-0.025009    -0.36987      9.7422,0  0  0,24.78598      120.9973      145.4149,0.199585    -0.7270508      145.4149,-69,6.5,
22:47:53:57,10386,24.5625,0.98002 -0.00021459   0.0038111     0.19888,0.0627569     0.432891       22.943,-0.018677   -0.026718   -0.072754,0.031738     -1.2021     -1.7607,-0.49634     -1.1123      8.0234,0  0  0,24.78599      120.9973      145.4456,0.2263184    -0.7280273      145.4456,-72,6,
22:47:53:91,10387,24.5625,0.98323  -0.0016005  0.00074114     0.18238,-0.164843     0.116955       21.017,-0.080872   -0.017365    -0.10699,1.1689     -3.3535     -2.1035,-0.12262     -3.5781      7.6719,0  0  0,24.78599      120.9973      145.3983,0.2468262    -0.8110352      145.3983,-70,6,
22:47:54:25,10388,24.5156,0.98364 -0.00015317 -0.00029718     0.18014,-0.0233993   -0.0303358      20.7558,0.049866     0.08728    0.021637,0.67578      0.8208     0.93115,0.92041     0.528809      10.7188,0  0  0,24.78599      120.9973      145.3759,0.2587891    -0.8330078      145.3759,-70,6.5,
22:47:54:59,10389,24.5156,0.98069 -0.00090043  -0.0019804     0.19557,-0.145572    -0.202378      22.5561,-0.013123     0.11816    0.050995,1.9072     -1.1572      0.9126,1.34277     -1.83008      10.6953,0  0  0,24.78599      120.9973      145.3269,0.2546387    -0.7880859      145.3269,-73,6,
22:47:54:93,10390,24.5313,0.97799   0.0026438  -0.0021967     0.20862,0.24378    -0.309391      24.0829,0.32544    -0.43042     0.14014,2.1172    0.046356      4.7109,2.09375     -0.71582      14.4844,0  0  0,24.786      120.9973         145.3,0.2629395    -0.7612305         145.3,-74,6.5,
22:47:55:27,10391,24.5313,0.97635   0.0020959  0.00041952     0.21619,0.244889  -0.00498736      24.9709,0.035156 -6.7234e-05   -0.028809,0.16223     -2.0215      1.3867,-0.703613     -1.84863      11.1875,0  0  0,24.786      120.9973      145.2885,0.239624    -0.7177734      145.2885,-75,6,
22:47:55:61,10392,24.5313,0.97591   0.0020035   0.0013036     0.21816,0.256648     0.095701      25.2018,0.061188    0.051605   -0.012901,0.7627     0.37671     0.21716,0.82959    0.0670166      10.0078,0  0  0,24.786      120.9973      145.2911,0.2631836    -0.7329102      145.2911,-72,6.25,
22:47:55:95,10393,24.5313,0.97615  0.00039086   0.0016845     0.21707,0.0856234     0.178707      25.0743,0.045776    0.013084   -0.059448,0.57129     0.24011     0.82813,0.585938  -0.00349617      10.6172,0  0  0,24.786      120.9973      145.2797,0.2578125    -0.6870117      145.2797,-67,6,
22:47:56:29,10394,24.5313,0.98027 -0.00010277  -0.0002874     0.19766,-0.0180535   -0.0299563      22.7999,-0.016983    0.038788     -0.1698,0.45166     0.73682      1.1006,0.704102     0.500488      10.8906,0  0  0,24.78601      120.9973      145.3017,0.2094727    -0.6489258      145.3017,-67,6,
22:47:56:63,10395,24.5313,0.9897  0.00079738  -0.0050666     0.14306,0.00737244    -0.587694      16.4501,0.099915    -0.10626    -0.39722,1.2334      1.4551      1.3926,1.71875      1.06543      11.1641,0  0  0,24.78601      120.9973      145.3187,0.1358643    -0.5703125      145.3187,-69,6.5,
22:47:56:97,10396,24.5781,0.99876 -0.00080769  9.9336e-05    0.049845,-0.091872    0.015982      5.7141,0.015823    0.047668    -0.47217,-0.38354     0.57031     0.23962,-0.333984     0.590332      10.0313,0  0  0,24.78601      120.9973      145.3086,0.1025391    -0.5498047      145.3086,-71,6.25,
22:47:57:31,10397,24.5781,0.99825   -0.001836  0.00089444     -0.0591,-0.21608    0.089882     -6.7764,0.020767    0.028107      -0.625,0.20947    -0.56055    -0.10846,0.26074    -0.56445      9.6797,0  0  0,24.78601      120.9973      145.3204,0.04879761    -0.5009766      145.3204,-70,6,
22:47:57:65,10398,24.5781,0.98261  -0.0024566  -0.0014671    -0.18567,-0.245394    -0.217455     -21.3997,-0.20276     0.15332    -0.59717,1.9609     0.16235      1.0117,1.78711     0.809082      10.8047,0  0  0,24.78601      120.9973      145.3165,0.0380249    -0.4228516      145.3165,-71,6,
22:47:57:99,10399,24.5625,0.95044  -0.0053181    0.002156    -0.31085,-0.656017    0.0453876     -36.2213,-0.092712   -0.092041    -0.55469,-0.40063    -0.19714      1.3535,-0.201294    -0.534668      11.1406,0  0  0,24.78601      120.9973      145.2985,-0.04586792    -0.3996582      145.2985,-88,-2,
22:47:58:33,10400,24.5625,0.91915   -0.002604    0.001796    -0.39389,-0.355336    0.0716322     -46.3945,-0.060303    0.096924    -0.39868,-0.50635    -0.24695    -0.22241,-0.18823    -0.60254      9.5625,0  0  0,24.78601      120.9973      145.2925,-0.1428223    -0.4091797      145.2925,-80,6.25,
22:47:58:67,10401,24.5625,0.8982   -0.005201  0.00046739    -0.43955,-0.558876    -0.213864     -52.1504,-0.075073    0.054321    -0.37256,0.83398     -2.8418      4.3711,2.80664     -1.22363      14.1406,0  0  0,24.78602      120.9973      145.2907,-0.1868896    -0.3974609      145.2907,-79,5.25,
22:47:59:01,10402,24.5625,0.86891 -0.00088325  -0.0010923    -0.49497,-0.0259872    -0.158862     -59.3358,-0.037964   -0.039246    -0.46899,0.46216     0.29395    0.032532,0.012512     0.53955      9.8203,0  0  0,24.78602      120.9973      145.3156,-0.267334    -0.4016113      145.3156,-74,6.25,
22:47:59:35,10403,24.5625,0.83393  0.00042227  -0.0029932    -0.55186,0.229643    -0.259338     -66.9897,-0.021515    0.069519    -0.35181,-0.078918     0.78906     -1.3359,-0.72461     0.26563      8.4531,0  0  0,24.78602      120.9973      145.3461,-0.3674316    -0.3674316      145.3461,-66,6,
22:47:59:69,10404,24.5625,0.8088  -0.0027577  -0.0021221    -0.58808,-0.11258    -0.382524     -72.0418,-0.15149     0.10938    -0.43945,-0.73193      -1.209      0.2937,0.986328     -1.09961      10.0703,0  0  0,24.78602      120.9973      145.3484,-0.5253906    -0.4030762      145.3484,-67,6.5,
22:48:00:03,10405,24.5625,0.76972  -0.0019446  -0.0024411    -0.63838,0.00705358    -0.357575     -79.3428,-0.012733   0.0013132    -0.42163,-0.91602    -0.88623     0.18689,0.76904     -1.0605      9.9688,0  0  0,24.78602      120.9973      145.3765,-0.5444336    -0.3171387      145.3765,-69,6.75,
22:48:00:37,10406,24.5625,0.7294 -0.00076505  -0.0026436    -0.68408,0.143288    -0.280931      -86.328,-0.080811    0.023651    -0.29199,-0.073486     0.32935    -0.22266,-0.2876   -0.036652      9.5703,0  0  0,24.78602      120.9973      145.4022,-0.5708008    -0.2230225      145.4022,-70,6,
22:48:00:71,10407,24.5625,0.74953  -0.0020694  -0.0022505    -0.66197,-0.00702237    -0.350273     -82.9007,-0.040009    -0.14758     0.27808,0.16675     0.38232    -0.58691,-0.28711     0.20886      9.2031,0  0  0,24.78602      120.9973      145.4117,-0.6166992    -0.2026367      145.4117,-66,6,
22:48:01:05,10408,24.5781,0.7937  -0.0024842  -0.0038131    -0.60829,0.0398493    -0.519971     -74.9334,0.19666    0.083191     0.43799,0.36304     -1.4932     0.40869,1.62207   -0.0178986      10.1875,0  0  0,24.78602      120.9973      145.4307,-0.5629883    -0.2805176      145.4307,-69,6.5,
22:48:01:40,10409,24.5781,0.81211 -0.00098622 -0.00061683    -0.58351,-0.050534    -0.123347     -71.3952,-0.080139     0.33691   -0.025665,-1.6543      1.8027     -2.9297,-2.2441     -1.0039      6.8555,0  0  0,24.78602      120.9973      145.4467,-0.5166016    -0.3483887      145.4467,-72,5.75,
22:48:01:74,10410,24.5781,0.80162  -0.0012763  -0.0034633    -0.59783,0.120021    -0.405573       -73.43,-0.040771   -0.011177    -0.13611,0.64844      0.1322      1.1797,0.137573     0.677734      10.9688,0  0  0,24.78602      120.9973      145.4563,-0.5595703    -0.3242188      145.4563,-76,5.75,
22:48:02:08,10411,24.5625,0.79573  2.8074e-05  -0.0034001    -0.60564,0.238535    -0.308085     -74.5514,-0.037323 -0.00029254    -0.01947,0.33936    -0.24109     0.39819,0.378662     0.301758      10.1875,0  0  0,24.78602      120.9973      145.4493,-0.5942383    -0.3171387      145.4493,-71,5.75,
22:48:02:42,10412,24.5625,0.80797  0.00078163  -0.0030011    -0.58922,0.275006    -0.225087     -72.2044,-0.01001     0.15771     0.19519,0.96729    -0.85596      1.5469,1.14063     0.710449      11.3281,0  0  0,24.78602      120.9973      145.4146,-0.6210938    -0.3549805      145.4146,-73,6.25,
22:48:02:76,10413,24.5625,0.82636   0.0024886   -0.001978    -0.56313,0.363298   -0.0267182     -68.5462,0.12695    0.051178    0.074463,-0.51025    -0.60547    -0.80615,0.37671    -0.62793      8.9844,0  0  0,24.78602      120.9973      145.3952,-0.5834961    -0.3842773      145.3952,-75,6.5,
22:48:03:10,10414,24.5781,0.80979   0.0013024  -0.0029791    -0.58671,0.321146     -0.18888     -71.8494,0.092896       0.112    -0.27075,-0.58594     0.97852     0.88037,-1.08789    -0.184937      10.6719,0  0  0,24.78602      120.9973      145.3714,-0.5825195    -0.3654785      145.3714,-74,6.5,
22:48:03:44,10415,24.5781,0.7809  -0.0033407  -0.0024633    -0.62464,-0.122627    -0.459558     -77.3121,-0.19202     0.66992    -0.35889,4.0547     -3.9629      2.4863,4.76563      3.05469      12.2813,0  0  0,24.78602      120.9973      145.3483,-0.5522461    -0.3603516      145.3483,-73,6.25,
22:48:03:78,10416,24.5781,0.73708 -0.00061003  0.00015935    -0.67581,-0.0638651   -0.0337834      -85.034,-0.10352    0.037903    -0.50049,-0.21619     0.57422    -0.55322,-0.58691    -0.18823      9.2344,0  0  0,24.78602      120.9973      145.3288,-0.5068359         -0.25      145.3288,-70,6.25,
22:48:04:12,10417,24.5469,0.65754  -0.0030004   0.0015781    -0.75342,-0.362326    -0.140131     -97.7745,0.072632     0.24475    -0.75977,-1.3867     -1.4072      1.1035,1.59277     -1.23242      10.8828,0  0  0,24.78602      120.9973      145.3165,-0.3684082    -0.1960449      145.3165,-78,4.75,
22:48:04:46,10418,24.5469,0.54661   0.0011974 -0.00084039    -0.83739,0.1556449    0.06226117     -113.7301,0.099976     0.17505    -0.73193,-0.37891      1.1143    -0.51074,-0.88721    -0.76709      9.2813,0  0  0,24.78602      120.9973      145.2884,-0.3781738    -0.1122437      145.2884,-89,-4.25,
22:48:04:80,10419,24.5469,0.43888   0.0018254  -0.0004219    -0.89854,0.1352474     0.1667394     -127.9346,0.0087814   -0.024857    -0.72559,0.27124     0.70703     -0.4187,-0.74707      -0.203      9.3672,0  0  0,24.78602      120.9973      145.2894,-0.4030762    0.02250671      145.2894,-76,5.75,
22:48:05:14,10420,24.5625,0.32731   0.0050987  -0.0004091     -0.9449,0.2355474     0.5367395     -141.7867,0.0057983    0.044464    -0.68604,-0.36304     0.95117     -1.0195,-0.38184    -0.93799      8.7734,0  0  0,24.78602      120.9973      145.3064,-0.3337402    0.09002686      145.3064,-78,5.5,
22:48:05:48,10421,24.5625,0.23926   0.0046758 -0.00043165    -0.97095,0.1762303     0.5084166     -152.3136,0.045929    0.010033    -0.62158,-0.54639     0.92334     0.28345,-0.0278625     -1.03613      10.0781,0  0  0,24.78602      120.9973        145.32,-0.2905273     0.1595459        145.32,-75,6.5,
22:48:05:82,10422,24.5469,0.17927    0.001567   0.0012388     -0.9838,-0.1074635     0.2021005     -159.3455,0.052795     0.23059    -0.26709,-0.057953     -1.0059      1.9902,0.339355     0.905762      11.7813,0  0  0,24.78601      120.9973      145.3343,-0.2683105     0.3293457      145.3343,-74,6.75,
22:48:06:16,10423,24.5469,0.20975   0.0019763   0.0024099    -0.97775,-0.2225104     0.2793539     -155.7848,-0.33398    0.048187      0.1748,1.6973     -1.9346      1.9863,-0.811035      2.37695      11.7891,0  0  0,24.78601      120.9973      145.2562,-0.3164063     0.4482422      145.2562,-72,5.75,
22:48:06:50,10424,24.5469,0.25092   0.0024042   0.0025466      -0.968,-0.2133597     0.3399159     -150.9363,-0.03186   -0.091003     0.11859,-0.81689      -1.248      1.3623,1.2666     0.646973      11.1563,0  0  0,24.78601      120.9973      145.2252,-0.4033203     0.4462891      145.2252,-69,6.5,
22:48:06:84,10425,24.4531,0.27613   0.0041367   0.0018727    -0.96111,-0.07535516     0.5148616     -147.9413,0.03949      0.0979    0.032593,-0.90039    -0.69775    0.079834,1.0361      0.1037      9.8828,0  0  0,24.78601      120.9973      145.1998,-0.4309082     0.3791504      145.1998,-70,6.5,
22:48:07:18,10426,24.4531,0.24956   0.0016364   0.0031481    -0.96835,-0.3025359     0.2716098     -151.0981,0.10107   -0.044952    -0.35107,0.22998      1.0645    -0.58008,-0.75146    -0.86182      9.2031,0  0  0,24.78601      120.9973      145.1839,-0.3996582     0.3894043      145.1839,-66,6,
22:48:07:52,10427,24.4531,0.20513  -0.0012296    0.006882    -0.97871,-0.8007567    0.02386616     -156.3256,-0.071716    -0.10559    -0.24243,-0.87012    -0.12476      1.0127,0.855957    -0.391846      10.7969,0  0  0,24.78601      120.9973      145.1609,-0.388916     0.4655762      145.1609,-72,5.75,
22:48:07:86,10428,24.4219,0.18107   0.0009442   0.0042092    -0.98346,-0.4547792     0.1937475      -159.136,0.12537    0.036835    -0.10767,1.7598      1.1367    -0.74121,-2.082    -0.49756      9.0391,0  0  0,24.786      120.9973      145.1696,-0.3564453     0.5273438      145.1696,-76,5.75,
22:48:08:20,10429,24.4219,0.16706  -0.0003891   0.0015133    -0.98595,-0.1784231   -0.01499021     -160.7658,0.11029   -0.061005    -0.17017,0.47681    -0.56006      1.5703,-0.255371     0.662598      11.3594,0  0  0,24.786      120.9973      145.1648,-0.3374023     0.5170898      145.1648,-75,5.75,
22:48:08:54,10430,24.4219,0.15896   -0.001856 -0.00064482    -0.98728,0.0391439    -0.2217186     -161.7066,-0.18347    -0.00494     0.14966,2.0313      -6.668      7.1719,0.245117      6.94922      16.9688,0  0  0,24.786      120.9973      145.1394,-0.3171387      0.609375      145.1394,-67,6.75,
22:48:08:88,10431,24.4063,0.21435  -0.0028872   -0.002352    -0.97675,0.192344     -0.380927     -155.2451,-0.2019     0.30493     0.15222,-0.29883     -1.3457     -0.7832,0.87012      1.1074           9,0  0  0,24.786      120.9973      145.1418,-0.3618164     0.5415039      145.1418,-67,5.75,
22:48:09:22,10432,24.4063,0.27057  -0.0019629 -0.00071432     -0.9627,0.01794288    -0.2386879     -148.6037,0.2522    0.020172     0.18896,0.10687       0.271     -1.4902,-0.19897    -0.15161      8.2969,0  0  0,24.78599      120.9973      145.1854,-0.4213867     0.5063477      145.1854,-75,6,
22:48:09:56,10433,24.4063,0.28425  -0.0070213   0.0039917    -0.95872,-0.6672886    -0.6413576     -146.9668,-0.15894   -0.054962    0.055511,-0.3833      2.0332     0.98877,-0.660645     -2.05469      10.7578,0  0  0,24.78599      120.9973      145.2016,-0.4294434     0.4963379      145.2016,-68,6.75,
22:48:09:90,10434,24.4063,0.31579  -0.0041077   0.0019918    -0.94882,-0.3652208    -0.3745388     -143.1814,0.048615    0.029388     0.18555,0.058655     -1.4404     0.86719,0.886719      1.12402      10.6563,0  0  0,24.78599      120.9973      145.2105,-0.4597168     0.4697266      145.2105,-72,5.75,
22:48:10:24,10435,24.4063,0.34273  -0.0012977   0.0031257    -0.93943,-0.3874524   -0.01693332     -139.9126,0.059967   -0.013054    0.036865,0.044556      0.8418    -0.10468,-0.57129    -0.67432      9.6797,0  0  0,24.78599      120.9973      145.2357,-0.4848633     0.4318848      145.2357,-69,6.75,
22:48:10:58,10436,24.4063,0.34367 -3.6643e-06   0.0009816    -0.93909,-0.1057754    0.03826297     -139.7983,0.063293    0.089417   -0.014366,0.02977    -0.14124     0.53467,0.0534973     0.114746      10.3203,0  0  0,24.78598      120.9973      145.2937,-0.4914551     0.4179688      145.2937,-71,6,
22:48:10:92,10437,24.3906,0.33883  -0.0073676   0.0010407    -0.94082,-0.3982989    -0.7539115     -140.3853,0.21143    -0.28247   -0.035309,-7.6602      2.2188      3.7754,4.70703     -6.65625      13.4609,0  0  0,24.78598      120.9973      145.3462,-0.5083008     0.4550781      145.3462,-74,6.25,
22:48:11:26,10438,24.3906,0.33222   0.0015242  -0.0023454     -0.9432,0.3115222    0.07545656     -141.1931,-0.16028    0.058411   -0.036469,-1.1758       1.377     0.95996,0.0347595     -1.76855      10.7578,0  0  0,24.78598      120.9973      145.3778,-0.4638672     0.4257813      145.3778,-70,6,
22:48:11:60,10439,24.3906,0.3269  0.00057625  -0.0027974    -0.94505,0.3245288   -0.04238479     -141.8381,-0.76123    0.025009     -0.3396,6.7578     -6.5352    -0.34302,-1.2988      9.2891      9.4609,0  0  0,24.78598      120.9973      145.3886,-0.357666     0.3666992      145.3886,-69,6.5,
22:48:11:94,10440,24.4063,0.30395   0.0039718  0.00037155    -0.95268,0.09777972     0.4465401     -144.6089,-0.092163    -0.15955    -0.21497,0.22485    -0.26733     -1.1719,-0.081726     0.35474      8.6172,0  0  0,24.78598      120.9973      145.3758,-0.4311523     0.4619141      145.3758,-68,7.25,
22:48:12:28,10441,24.4063,0.29463   0.0046545    0.002579     -0.9556,-0.1252762     0.5967685     -145.7297,0.013939    -0.11469  -0.0022774,0.70215     -1.2539    -0.61865,0.042114      1.4131      9.1719,0  0  0,24.78597      120.9973      145.3804,-0.440918     0.5351563      145.3804,-68,6.75,
22:48:12:62,10442,24.4063,0.29876   0.0036098   0.0062663     -0.9543,-0.5617125     0.6092933     -145.2357,0.0026093    0.017578    0.015625,-0.25659     -1.6221      1.8223,1.01172      1.07227      11.6328,0  0  0,24.78597      120.9973      145.3888,-0.4543457     0.5620117      145.3888,-65,6.5,
22:48:12:96,10443,24.4375,0.29703   0.0034536   0.0037829    -0.95486,-0.296383     0.5066535     -145.4426,-0.021378   -0.071716    -0.10602,0.604    0.085266    -0.23792,-0.62256     0.22058      9.5469,0  0  0,24.78597      120.9973      145.3729,-0.4438477     0.5673828      145.3729,-66,6.75,
22:48:13:30,10444,24.4375,0.27919    0.003647   0.0027179    -0.96022,-0.1823894     0.4882504     -147.5764,0.043365   -0.031342    -0.12915,0.72998      1.5518    -0.75146,-1.5195    -0.94434      9.0234,0  0  0,24.78597      120.9973      145.3686,-0.3901367     0.5654297      145.3686,-64,6,
22:48:13:64,10445,24.4375,0.25961   0.0030306 -0.00044354    -0.96571,0.1392413     0.3221768     -149.9059,-0.019455   -0.059631     -0.1145,0.82813     0.36304     -1.5283,-0.93945     0.11902      8.2578,0  0  0,24.78596      120.9973      145.3464,-0.3557129     0.5644531      145.3464,-69,6.75,
22:48:13:98,10446,24.4531,0.253     0.00441  -0.0011944    -0.96745,0.2602752     0.4542813     -150.6881,-0.0495  -0.0056801   -0.034332,-0.034241     0.26855    -0.77979,-0.17139    -0.21423      9.0078,0  0  0,24.78596      120.9973      145.3159,-0.3305664     0.5761719      145.3159,-65,6.25,
22:48:14:32,10447,24.4531,0.25164   0.0027744  0.00012928    -0.96782,0.06566721     0.3114257     -150.8502,0.012032   -0.007122   -0.019135,-1.2637    -0.91602     0.53516,1.49512     0.197754      10.3281,0  0  0,24.78596      120.9973      145.2934,-0.3137207     0.5532227      145.2934,-67,6.5,
22:48:14:66,10448,24.4531,0.26595   0.0045858   0.0015906    -0.96398,-0.03595069     0.5550482     -149.1535,-0.089844    -0.24561     0.14307,1.2559    -0.91162     0.28198,-0.680176      1.41211      10.0703,0  0  0,24.78596      120.9973      145.2676,-0.3256836     0.6025391      145.2676,-66,6,
22:48:15:00,10449,24.4531,0.2764   0.0062192   0.0023991    -0.96102,-0.06722464     0.7608993     -147.9091,0.080872     0.25928   -0.048187,2.7969      1.3662    -0.43091,-3.2441     0.32422      9.3047,0  0  0,24.78596      120.9973      145.2575,-0.3320313     0.5600586      145.2575,-67,6,
22:48:15:34,10450,24.4531,0.27644  0.00086774 -0.00096077    -0.96103,0.1332947    0.06512563      -147.904,0.36523    -0.30103   -0.019897,-2.457      5.2422     -8.5938,-0.70166     -5.7383      1.2275,0  0  0,24.78595      120.9973      145.2358,-0.3581543     0.6723633      145.2358,-68,6.75,
22:48:15:68,10451,24.4063,0.28218   0.0037443   0.0022581    -0.95935,-0.1271702     0.4846451     -147.2199,-0.15149   -0.057495   -0.047119,1.3096    -0.90332    0.018188,-0.68848      1.4316      9.8047,0  0  0,24.78595      120.9973      145.2098,-0.3481445     0.6069336      145.2098,-66,6.25,
22:48:16:02,10452,24.4063,0.27177  -0.0017788   0.0063715    -0.96234,-0.7580415   0.002266474     -148.4595,-0.25781  -0.0086365   -0.090332,1.0547      2.0195      2.1035,-1.95215     -1.35742       11.875,0  0  0,24.78595      120.9973      145.2277,-0.3588867     0.6689453      145.2277,-71,6,
22:48:16:36,10453,24.4063,0.27198 -0.00049864  -0.0011799     -0.9623,0.1145689   -0.09175961     -148.4356,0.11719    0.029419   -0.025238,-1.8936      1.2588      -1.623,0.96631     -2.0371      8.1719,0  0  0,24.78595      120.9973      145.2533,-0.3608398     0.6508789      145.2533,-70,5.75,
22:48:16:71,10454,24.3906,0.27764   0.0034514  -0.0035506    -0.96067,0.5006836     0.2669921     -147.7601,0.073669    0.048035     0.04422,0.40137      2.1367     -1.5928,-1.5205     -1.5137      8.2031,0  0  0,24.78594      120.9973      145.2619,-0.3391113     0.6469727      145.2619,-84,3.25,
22:48:17:05,10455,24.3906,0.28881   0.0024074  -0.0042168    -0.95737,0.542297     0.1245556     -146.4258,-0.026047  -0.0039482    0.071594,0.091003     -1.3047      1.0322,0.625      1.23633      10.8125,0  0  0,24.78594      120.9973      145.3052,-0.3671875     0.6499023      145.3052,-68,6.75,
22:48:17:39,10456,24.3906,0.29688   0.0053467    -0.00569    -0.95488,0.804546     0.3914798     -145.4559,-0.0041962    0.066589   -0.015465,0.28418     0.12891     -0.7915,-0.37354     0.18103      8.9922,0  0  0,24.78594      120.9973      145.3737,-0.3618164     0.6328125      145.3737,-64,7,
22:48:17:73,10457,24.4375,0.29658   0.0038578  -0.0034621    -0.95499,0.5099984     0.3045201     -145.4939,-0.012192     0.03595    -0.01619,0.23132      0.3064    -0.17346,-0.41772   -0.036957      9.6172,0  0  0,24.78594      120.9973      145.3943,-0.3630371     0.6582031      145.3943,-61,5.75,
22:48:18:07,10458,24.4375,0.30033  0.00071998  -0.0015706    -0.95383,0.1964528    0.02463969     -145.0447,0.0016518    0.053436    0.020508,0.59814     0.25903    0.097168,-0.64697     0.16492      9.8828,0  0  0,24.78593      120.9973      145.4357,-0.3710938     0.6796875      145.4357,-60,6.25,
22:48:18:41,10459,24.4375,0.30741 -0.00082107   -0.001366    -0.95157,0.1200268    -0.1376508     -144.1932,0.010193    0.031052    0.017166,-0.64893    -0.51904      1.0449,0.853516    0.0650635      10.8359,0  0  0,24.78593      120.9973      145.4546,-0.375     0.6777344      145.4546,-63,6.5,
22:48:18:75,10460,24.4219,0.30888  -0.0015895  -0.0020548     -0.9511,0.1676833    -0.2459688     -144.0169,-0.062744   0.0089111   -0.029602,-0.44043     0.79541    -0.26392,-0.069702    -0.88037      9.5313,0  0  0,24.78593      120.9973       145.453,-0.3205566     0.6328125       145.453,-67,5.75,
22:48:19:08,10461,24.4219,0.30771  0.00080995  -0.0020495    -0.95148,0.2520242    0.01604137     -144.1573,0.0097046   -0.013252   0.0054665,0.68311     0.78711     -1.3164,-1.0146    -0.19958      8.4766,0  0  0,24.78592      120.9973      145.4161,-0.324707     0.6489258      145.4161,-69,7,
22:48:19:42,10462,24.4219,0.31016  -0.0013818 -0.00022563    -0.95068,-0.0245314    -0.1585543     -143.8622,-0.085999  -0.0065155   -0.010963,-0.17151     -1.0859      1.3496,0.811523     0.761719      11.1406,0  0  0,24.78592      120.9973      145.4011,-0.3181152     0.6655273      145.4011,-68,6.5,
22:48:19:77,10463,24.4375,0.31095   0.0040255  -0.0031964    -0.95041,0.491573     0.3245207     -143.7653,0.23584   -0.021622   -0.034821,5.0391     0.67041     -3.8125,-4.4922       2.502      5.9258,0  0  0,24.78592      120.9973       145.395,-0.302002     0.6855469       145.395,-69,6.5,
22:48:20:11,10464,24.4375,0.31074  -0.0093048   0.0025304    -0.95045,-0.6070117     -0.923346      -143.786,0.036285  -0.0043335   -0.030518,-6.375      -2.334      2.0977,6.71484     -2.00195      11.7578,0  0  0,24.78592      120.9973      145.3797,-0.34375     0.6796875      145.3797,-69,6.75,
22:48:20:45,10465,24.4375,0.30585   -0.001131   0.0013904    -0.95208,-0.1913275   -0.07465809     -144.3816,0.18567    0.051178   -0.057709,-1.292      -2.084     0.94775,2.27344     0.927246      10.7344,0  0  0,24.78592      120.9973      145.3198,-0.3425293     0.7089844      145.3198,-63,6.5,
22:48:20:79,10466,24.4531,0.29958   0.0011112  -0.0031279    -0.95407,0.380115    0.01411256     -145.1354,0.17346   -0.051666     0.01123,1.04    -0.21997    0.024872,-0.72363     0.85791      9.8047,0  0  0,24.78591      120.9973       145.272,-0.3125     0.7319336       145.272,-63,6.5,
22:48:21:13,10467,24.4531,0.29819  -0.0011926  -0.0055763    -0.95449,0.5691887    -0.3209877     -145.3036,0.17065     0.44995   -0.038086,-3.0254     -1.5576     -1.0527,3.3848    -0.33911      8.7344,0  0  0,24.78591      120.9973       145.224,-0.2961426     0.6796875       145.224,-63,6.25,
22:48:21:47,10468,24.4531,0.29865   0.0012428  -0.0039613    -0.95435,0.4757542  0.0003504482     -145.2466,-0.01194    0.085632   -0.014877,2.1367     0.47705    -0.25806,-2.0352     0.90479      9.5234,0  0  0,24.78591      120.9973      145.1858,-0.2617188     0.7128906      145.1858,-64,6.25,
22:48:21:81,10469,24.4844,0.29884  0.00016584  -0.0041126     -0.9543,0.4554167    -0.1226976     -145.2248,0.12274   -0.007988   -0.045807,-0.72461     0.23279    -0.96191,0.48315    -0.52344      8.8281,0  0  0,24.78591      120.9973      145.1581,-0.2580566     0.7055664      145.1581,-66,6.25,
22:48:22:15,10470,24.4844,0.30061   0.0026838 -0.00070931    -0.95374,0.1699731     0.2688816     -145.0109,0.002018   -0.024445   -0.017334,-0.03241    -0.52881     0.29858,0.286133     0.445068      10.0859,0  0  0,24.7859      120.9973      145.1456,-0.2629395     0.7182617      145.1456,-72,6,
22:48:22:49,10471,24.4844,0.30102   0.0017049  -0.0016683    -0.95362,0.241122     0.1287596     -144.9622,0.030136    0.016327   -0.028625,0.075928    -0.67969    0.019272,0.30542     0.64453      9.8047,0  0  0,24.7859      120.9973       145.113,-0.2307129     0.6938477       145.113,-79,5,
22:48:22:83,10472,24.4844,0.30115  -0.0015787  -0.0014307    -0.95358,0.1018596    -0.2218755     -144.9472,-0.11005    0.041138   0.0065994,-1.043     0.90039      -0.896,0.36816     -1.3301      8.8906,0  0  0,24.7859      120.9973      145.0746,-0.2342529     0.7109375      145.0746,-69,6.25,
22:48:23:17,10473,24.4844,0.30669  -0.0011296   -0.002909     -0.9518,0.2775845    -0.2254337     -144.2803,0.031799   -0.046082    0.011543,0.72705    -0.38159     0.50928,-0.320557     0.787598      10.2969,0  0  0,24.7859      120.9973      145.0467,-0.2250977     0.7241211      145.0467,-68,6.5,
22:48:23:51,10474,24.4844,0.31114  -0.0018819  -0.0034002    -0.95036,0.3032051    -0.3261769     -143.7449,-0.034546     0.19507 -0.00060511,-0.84668    -0.50781    0.038147,1.0205   -0.042603      9.8203,0  0  0,24.78589      120.9973      145.0098,-0.2496338     0.7416992      145.0098,-64,6.5,
22:48:23:85,10475,24.5469,0.31269  0.00052246  -0.0036295    -0.94985,0.4137798   -0.07318621     -143.5569,-0.017212    -0.10974   -0.015747,0.87158     -0.7041     0.42114,-0.257568      1.15625      10.2031,0  0  0,24.78589      120.9973      144.9811,-0.2252197          0.75      144.9811,-67,6.25,
22:48:24:19,10476,24.5469,0.3194   0.0032005  -0.0026074    -0.94761,0.4002732     0.2521027     -142.7459,-0.14026    0.070251     0.06543,3.5098    -0.10449    -0.93555,-2.7734      2.2598      8.8281,0  0  0,24.78589      120.9973      144.9541,-0.2216797     0.7592773      144.9541,-64,7,
22:48:24:53,10477,24.5469,0.33665   0.0012932  -0.0025774    -0.94163,0.327996    0.04011479     -140.6543,0.032562     0.10706     0.10809,1.5244       2.709     -2.8027,-2.9082      -1.082      6.9883,0  0  0,24.78589      120.9973      144.9466,-0.2802734     0.8061523      144.9466,-66,6.25,
22:48:24:87,10478,24.5313,0.34917  -0.0025478  -0.0019511    -0.93706,0.1075704    -0.3516535     -139.1276,0.16028     0.42065   0.0058594,-4.3398     0.74561     -1.9434,2.8086      -3.377      7.8516,0  0  0,24.78588      120.9973      144.9298,-0.286377       0.71875      144.9298,-64,6.25,
22:48:25:21,10479,24.5313,0.34115  0.00021317  -0.0018872    -0.94001,0.2116164   -0.05081233     -140.1067,0.041351    -0.12012   -0.086914,-1.5322     0.76465     -1.1123,0.70508     -1.5332      8.6797,0  0  0,24.78588      120.9973      144.9508,-0.2832031     0.7973633      144.9508,-62,6.25,
22:48:25:55,10480,24.5313,0.33574   0.0012169  -0.0026202    -0.94195,0.3296474    0.03054314     -140.7645,-0.23474     0.16101   -0.037262,1.3662     -1.0557    0.037689,-0.41064      1.7148      9.8203,0  0  0,24.78588      120.9973      144.9399,-0.2695313     0.7924805      144.9399,-57,6.25,
22:48:25:89,10481,24.5156,0.33157  0.00046648  -0.0022909    -0.94343,0.2653932   -0.03661208      -141.272,-0.13098   -0.042236   -0.025787,0.35376      2.1152    -0.97266,-1.5889     -1.3994      8.8203,0  0  0,24.78588      120.9973      144.9548,-0.2509766     0.7993164      144.9548,-55,5.75,
22:48:26:23,10482,24.5156,0.33121 -0.00023734  -0.0045864    -0.94355,0.4868965    -0.1997339     -141.3162,-0.056366    0.028488   -0.032684,0.46704   -0.016296    0.043671,-0.32178     0.38281      9.8281,0  0  0,24.78588      120.9973      144.9725,-0.2092285     0.7485352      144.9725,-55,6,
22:48:26:57,10483,24.5156,0.32479  -0.0017772 -0.00092118    -0.94578,0.03369081    -0.2269004      -142.094,0.089539   0.0092392   -0.093872,-0.39429     0.44092    -0.50244,0.077515    -0.57617      9.2891,0  0  0,24.78587      120.9973      144.9756,-0.2226563     0.7802734      144.9756,-53,6.25,
22:48:26:92,10484,24.5156,0.31332  -0.0064938  -0.0013515    -0.94962,-0.08609291    -0.7551958     -143.4792,0.0024872   -0.026535   -0.085205,-0.14832      1.0391    -0.99609,-0.37939    -0.93652      8.7969,0  0  0,24.78587      120.9973      144.9848,-0.2347412     0.8251953      144.9848,-52,6.75,
22:48:27:26,10485,24.5156,0.31604  -0.0039576  -0.0024227    -0.94874,0.1200704    -0.5180056     -143.1533,-0.055878   -0.050446    0.024231,0.14136     0.67969    -0.92041,-0.43506    -0.44507       8.875,0  0  0,24.78587      120.9973       144.977,-0.1804199     0.7851563       144.977,-51,5.5,
22:48:27:60,10486,24.5469,0.3292  -0.0049654  -0.0029141    -0.94424,0.128003    -0.6472094     -141.5597,-0.099548  -0.0051117    0.097534,0.3667     -1.4063     0.28931,0.704102      1.34082      10.0703,0  0  0,24.78587      120.9973      144.9781,-0.2025146     0.7890625      144.9781,-53,6,
22:48:27:94,10487,24.5469,0.34663  -0.0053267   -0.003852    -0.93798,0.2024654    -0.7255584     -139.4373,-0.0019426   0.0065651    0.032501,-1.4551    0.084961     0.19434,1.1768    -0.97607      9.9688,0  0  0,24.78586      120.9973      144.9949,-0.2253418     0.7636719      144.9949,-54,6,
22:48:28:28,10488,24.5469,0.34809  -0.0043051  -0.0043709    -0.93744,0.2978341    -0.6368259     -139.2602,-0.023148     0.12292   -0.091431,0.031403    0.095215     0.13684,0.013329  -0.0021477      9.9297,0  0  0,24.78586      120.9973      145.0035,-0.2229004     0.7558594      145.0035,-52,6.75,
22:48:28:62,10489,24.5625,0.33021   0.0054214   0.0028147    -0.94389,-0.0993113     0.6929134     -141.4367,0.37524  -0.0051041    -0.18042,6.7539      4.9688     -6.6875,-8.4141     0.31641       2.998,0  0  0,24.78586      120.9973      145.0203,-0.1716309     0.8007813      145.0203,-50,6.5,
22:48:28:96,10490,24.5625,0.3238  -0.0017386   0.0017443    -0.94612,-0.2536208    -0.1237729     -142.2136,-0.10278   0.0066032  -0.0075035,0.18469      0.1156    -0.90479,-0.19714   -0.026474      8.8828,0  0  0,24.78586      120.9973      145.0583,-0.1818848     0.7895508      145.0583,-55,6.25,
22:48:29:30,10491,24.5625,0.33252   0.0013054  -0.0019346    -0.94309,0.2588178    0.06735835      -141.156,-0.15161   -0.014961    0.049286,0.40527      2.8711     -4.0547,-2.123     -1.9629      5.7383,0  0  0,24.78585      120.9973      145.0829,-0.1518555     0.7685547      145.0829,-52,6.5,
22:48:29:64,10492,24.6094,0.34291   0.0024963  -0.0028168    -0.93936,0.4013035     0.1580292     -139.8911,0.041077     0.16858    0.039886,2.0723    -0.49829     -1.6172,-1.2979      1.7773      8.1563,0  0  0,24.78585      120.9973      145.1052,-0.1516113     0.7114258      145.1052,-53,7,
22:48:29:98,10493,24.6094,0.34279 -4.5604e-05 -8.4106e-05    -0.93941,0.007262513   -0.00821294     -139.9057,0.013657     0.03479   -0.027786,2.0645      1.1074     -1.0947,-2.293     0.48511      8.6953,0  0  0,24.78585      120.9973      145.1124,-0.1601563     0.7470703      145.1124,-57,6.5,
22:48:30:32,10494,24.6094,0.34098  -0.0012714  -0.0011767    -0.94007,0.07708431    -0.1829424     -140.1269,-0.1311    0.018753   -0.037567,1.5811    -0.40552    -0.74951,-0.92578      1.3252      9.0391,0  0  0,24.78585      120.9973      145.1107,-0.1473389     0.7275391      145.1107,-66,6,
22:48:30:66,10495,24.6094,0.34134  -0.0044195 -0.00079217    -0.93993,-0.08754921    -0.5070038     -140.0816,0.057922    -0.04599    0.030594,-1.0908     0.89795     -1.1572,0.34082     -1.3965       8.625,0  0  0,24.78585      120.9973      145.0724,-0.1541748     0.7353516      145.0724,-70,6,
22:48:31:01,10496,24.6094,0.35368  -0.0023563   0.0004143    -0.93536,-0.1399072    -0.2357703     -138.5739,0.029984   -0.017426    0.049438,-0.97949      1.0928     -1.3086,0.047607     -1.4854      8.4766,0  0  0,24.78584      120.9973      145.0474,-0.1442871     0.7133789      145.0474,-65,6.25,
22:48:31:35,10497,24.6094,0.35902  -0.0017594  -0.0025047    -0.93333,0.195502    -0.2912107     -137.9206,0.050323     0.02179   -0.024887,0.18689     -1.3945      1.1846,0.850586       1.2041      10.9609,0  0  0,24.78584      120.9973      145.0482,-0.1439209     0.6894531      145.0482,-54,6.75,
22:48:31:69,10498,24.6094,0.35838  -0.0013093  -0.0021376    -0.93357,0.1749104    -0.2278557     -137.9988,-0.075989   -0.068726   -0.021423,-0.80078    -0.75732      1.1172,1.1543    0.0520935      10.8984,0  0  0,24.78584      120.9973      145.0321,-0.1630859     0.7143555      145.0321,-52,6.5,
22:48:32:03,10499,24.6094,0.36466   0.0021688  -0.0033057    -0.93113,0.443351    0.09328032     -137.2264,0.0054817   0.0041962   0.0090485,0.18604     0.49927     -1.0098,-0.48926    -0.17139      8.7813,0  0  0,24.78584      120.9973      145.0023,-0.1502686     0.7011719      145.0023,-49,6.25,
22:48:32:37,10500,24.6094,0.36641   0.0015266  -0.0037647    -0.93044,0.4654949   0.004699372     -137.0106,-0.011032    0.007988    0.016953,1.3525     0.71094    -0.74121,-1.4746      0.4751      9.0469,0  0  0,24.78584      120.9973      144.9643,-0.1442871     0.6899414      144.9643,-49,6.25,
22:48:32:71,10501,24.6406,0.37496   0.0013893  -0.0022685    -0.92704,0.3006794    0.05011356     -135.9566,0.088989    0.052216    0.012749,-0.76514    -0.27905     0.20557,0.730957    -0.270264           10,0  0  0,24.78584      120.9973      144.8677,-0.1343994     0.6201172      144.8677,-48,6.5,
22:48:33:05,10502,24.6406,0.37191  -0.0026438 -0.00066536    -0.92827,-0.04189804    -0.3095856     -136.3333,0.16724     0.20959   -0.078491,-4.3477      4.2148     -3.2813,0.2605      -6.043      6.5117,0  0  0,24.78583      120.9973      144.8378,-0.1451416     0.6367188      144.8378,-46,6,
22:48:33:39,10503,24.6406,0.35739  0.00059927 -0.00011603    -0.93396,0.0369606    0.05938374     -138.1201,-0.24146    0.081604    -0.16028,0.48828    -0.47241    0.062469,-0.066284     0.66016      9.8516,0  0  0,24.78583      120.9973      144.7829,-0.1768799     0.6586914      144.7829,-47,7,
22:48:33:73,10504,24.6094,0.355  0.00037391  -0.0010395    -0.93487,0.1265668   -0.00222971     -138.4133,-0.0019093    -0.03476    -0.03595,-0.23132     0.10193    -0.58838,0.10999    -0.20947      9.2031,0  0  0,24.78583      120.9973      144.6595,-0.2458496     0.7436523      144.6595,-46,6,
22:48:34:07,10505,24.6094,0.35418 -0.00067692  -0.0017843    -0.93517,0.1637426    -0.1449606     -138.5133,0.0061722     0.10602   -0.047363,-0.065918     0.91455    -0.68359,-0.54199    -0.70215      9.1094,0  0  0,24.78583      120.9973      144.5766,-0.2570801     0.7451172      144.5766,-47,6.75,
22:48:34:41,10506,24.6094,0.35748 -0.00078833  -0.0015589    -0.93392,0.1345433    -0.1482271     -138.1093,-0.0084229    -0.05603   -0.048615,-1.3193     0.10321    -0.79395,0.94238    -0.93652      8.9922,0  0  0,24.78582      120.9973      144.4572,-0.2766113     0.7163086      144.4572,-47,6.5,
22:48:34:75,10507,24.6406,0.34845  -0.0018766  -0.0017469    -0.93733,0.1127008    -0.2713146     -139.2154,-0.0099182   0.0049667   -0.057465,0.069885     0.53174    0.053802,-0.35303    -0.33862      9.8438,0  0  0,24.78582      120.9973      144.3332,-0.2636719     0.7294922      144.3332,-48,6.25,
22:48:35:09,10508,24.6406,0.3577  0.00098268  -0.0011093    -0.93384,0.1589802    0.05968965     -138.0823,-0.008934     -0.0849    0.054199,0.38062     0.31348    -0.86621,-0.49316    0.045502      8.9219,0  0  0,24.78582      120.9973       144.219,-0.2479248     0.6953125       144.219,-49,6.5,
22:48:35:43,10509,24.6406,0.37675 -0.00082914  0.00010274    -0.92631,-0.04670192   -0.08357544     -135.7343,-0.058533   -0.073914     0.13342,0.30176     -1.6797      1.3271,0.984375      1.39648      11.1172,0  0  0,24.78582      120.9973      144.1269,-0.2980957     0.6713867      144.1269,-47,6.75,
22:48:35:77,10510,24.625,0.39922 -0.00042853  -0.0013535    -0.91686,0.1225983    -0.1069405     -132.9417,0.010323   -0.055573    0.072144,-0.080261    -0.53516    -0.20654,0.47095      0.3269      9.5781,0  0  0,24.78581      120.9973      144.0669,-0.2875977       0.59375      144.0669,-46,6.5,
22:48:36:11,10511,24.625,0.3975  0.00052392  0.00018919     -0.9176,0.003970781    0.06370719     -133.1563,-0.12054    0.010727    -0.12915,0.73242     0.49121     -1.0518,-0.86914     0.18774      8.7344,0  0  0,24.78581      120.9973      144.0353,-0.2514648     0.5273438      144.0353,-46,6.5,
22:48:36:45,10512,24.6563,0.37604  0.00082312  0.00047515     -0.9266,-0.01498343     0.1078742     -135.8232,0.11389    0.011299    -0.21228,0.23645      2.0254     -3.8223,-1.5889     -1.2852      5.9648,0  0  0,24.78581      120.9973      144.0046,-0.2614746     0.5595703      144.0046,-46,5.75,
22:48:36:79,10513,24.6563,0.34047 -0.00041766   0.0014829    -0.94025,-0.1760757     0.0128568     -140.1889,-0.08197    0.080444    -0.30713,0.84717    -0.89453     -0.1532,-0.090271      1.1914      9.6406,0  0  0,24.78581      120.9973      143.9898,-0.1835938     0.5097656      143.9898,-45,6,
22:48:37:13,10514,24.6563,0.26061  0.00097897   0.0025275    -0.96544,-0.2503904     0.1837871     -149.7874,-0.023621   -0.011818    -0.65088,0.4292     0.49048    -0.21863,-0.64453    -0.25586      9.5703,0  0  0,24.78581      120.9973      143.9768,-0.06195068     0.4125977      143.9768,-44,6.25,
22:48:37:47,10515,24.6719,0.12289   -0.000691   0.0027156    -0.99242,-0.3185596   -0.04034041     -165.8821,0.0071487     0.10669    -0.86816,-0.36108      2.3125     0.43579,-0.196289     -2.38867      10.2109,0  0  0,24.78581      120.9973      144.1273,0.02142334     0.3400879      144.1273,-46,6.5,
22:48:37:82,10516,24.6719,-0.015303   0.0033392   0.0032421    -0.99987,-0.3773319     0.3769111      178.2451,0.069702     0.11456    -0.80957,-0.32251     0.60156     0.52441,0.267334    -0.649902      10.3125,0  0  0,24.78581      120.9973      144.1933,0.08544922     0.4055176      144.1933,-45,5.75,
22:48:38:16,10517,24.6719,-0.14333   0.0025719   0.0024128    -0.98967,-0.3158789      0.252048      163.5179,0.015167  -0.0022945    -0.56787,1.0352     0.62061    -0.80859,-0.84912    -0.94141      8.9688,0  0  0,24.7858      120.9973      144.3799,0.1732178     0.4367676      144.3799,-46,6.75,
22:48:38:50,10518,24.6719,-0.23846   0.0010413   0.0036803    -0.97115,-0.4380166    0.01531597      152.4089,-0.032898   -0.039429    -0.56104,0.099915    -0.50439     0.11926,-0.32153     0.32007      9.9141,0  0  0,24.7858      120.9973      144.4922,0.2661133     0.4501953      144.4922,-48,6.25,
22:48:38:83,10519,24.6719,-0.31704    0.004003   0.0029782     -0.9484,-0.4691073     0.3268397      143.0304,0.10999     0.21289    -0.40942,1.0059      1.4453    -0.90381,0.0042877     -1.8223       8.875,0  0  0,24.7858      120.9973      144.5916,0.3791504     0.4624023      144.5916,-47,6.5,
22:48:39:17,10520,24.6719,-0.36635   0.0016703   0.0029642    -0.93047,-0.386183    0.05365459      137.0183,-0.051697    -0.10315    -0.21423,0.91895     0.87793    -0.62109,-0.069458      -1.335      9.1563,0  0  0,24.7858      120.9973      144.6967,0.4902344     0.4223633      144.6967,-51,5.5,
22:48:39:51,10521,24.6875,-0.39123 -0.00055594   0.0022628    -0.92029,-0.2137109    -0.1600732      133.9386,0.056732    0.071594    -0.14136,-0.18384     0.43164      0.5625,0.461182    -0.198975      10.3516,0  0  0,24.7858      120.9973      144.8051,0.5224609     0.3928223      144.8051,-53,6.75,
22:48:39:85,10522,24.6875,-0.40619  -0.0017494  0.00041963    -0.91379,0.0374883    -0.2027179      132.0684,0.050262    0.045166    -0.10022,0.082031     0.31372    -0.50391,0.20776    -0.26001      9.2813,0  0  0,24.7858      120.9973      144.8904,0.550293     0.3737793      144.8904,-43,6,
22:48:40:19,10523,24.6875,-0.4237 -0.00012854   0.0019897     -0.9058,-0.20028    -0.1099456       129.863,-0.087585   -0.022568   -0.093445,0.41602    -0.25781    -0.44971,-0.44336    -0.19507      9.3359,0  0  0,24.7858      120.9973      144.9355,0.5766602     0.3320313      144.9355,-43,7,
22:48:40:54,10524,24.7031,-0.42761   0.0021161 -0.00068662    -0.90396,-0.03256513     0.2528453      129.3682,-0.053345     0.53516    0.029373,-4.6211    -0.20605     0.88281,2.67188      3.69141      10.7031,0  0  0,24.7858      120.9973      144.9951,0.5224609     0.3527832      144.9951,-43,6.5,
22:48:40:88,10525,24.7031,-0.4291  0.00066303   0.0051323    -0.90324,-0.5638316    -0.1837377      129.1792,-0.057068    0.092468   -0.021896,-0.67725     0.76074     0.41016,1.04199   -0.0616455      10.1953,0  0  0,24.7858      120.9973       145.041,0.5810547     0.3239746       145.041,-42,2.5,
22:48:41:22,10526,24.7031,-0.43463 -0.00032737   0.0047616     -0.9006,-0.475106    -0.2709346      128.4774,-0.020142   0.0013828     -0.0401,0.28711      0.2323    -0.10114,0.05011    -0.45117      9.6875,0  0  0,24.7858      120.9973      145.0641,0.5795898     0.2797852      145.0641,-41,6.25,
22:48:41:56,10527,24.7188,-0.42848   0.0015582   0.0029589    -0.90354,-0.3828679    0.01605289      129.2572,0.051941     0.21509    0.055389,0.38379    -0.24011     0.50781,-0.452881     -0.20813      10.2969,0  0  0,24.7858      120.9973      145.0688,0.5717773     0.2641602      145.0688,-37,6.5,
22:48:41:90,10528,24.7188,-0.4026   0.0009667   0.0021938    -0.91537,-0.27472  0.0001899652      132.5188,0.031616    0.031082     0.19153,0.73291     0.62109     -0.4458,-0.041443      -1.001      9.3359,0  0  0,24.7858      120.9973      145.0802,0.5878906     0.3063965      145.0802,-34,6,
22:48:42:24,10529,24.7188,-0.38466   0.0049628   0.0028778    -0.92304,-0.523162     0.3980795      134.7521,-0.33423    -0.14172   -0.066895,1.1572     0.34839     -1.8633,-0.60986      -1.166      7.9102,0  0  0,24.7858      120.9973      145.0903,0.53125     0.3000488      145.0903,-29,6,
22:48:42:58,10530,24.7031,-0.40948    0.001663   0.0059396     -0.9123,-0.698986    -0.1048541       131.655,-0.043121    0.037018     -0.1377,-0.012657    -0.35693     0.31592,-0.242554     0.118958      10.1094,0  0  0,24.7858      120.9973      145.1067,0.5517578     0.2883301      145.1067,-27,6.75,
22:48:42:92,10531,24.7031,-0.41654   0.0022151   0.0046067    -0.90911,-0.5856476    0.01088071      130.7672,0.061523   0.0020123    -0.05069,-0.37085    0.025055     0.43921,0.26001     0.166382      10.2266,0  0  0,24.7858      120.9973      145.1317,0.5864258     0.2971191      145.1317,-25,6.5,
22:48:43:26,10532,24.7031,-0.41864  0.00088697   0.0033987    -0.90814,-0.3962384   -0.07074243      130.5018,0.021759   -0.048889   -0.014938,-0.51465     0.35669     0.81982,0.625    0.0889282      10.6094,0  0  0,24.7858      120.9973      145.1604,0.5678711     0.2624512      145.1604,-24,6.25,
22:48:43:60,10533,24.7344,-0.41386   0.0026781   0.0010913    -0.91034,-0.2408525     0.2276134      131.1046,0.11047    0.039734  0.00084448,0.49438     0.32178    -0.80078,-0.12091    -0.61182      8.9844,0  0  0,24.7858      120.9973      145.1771,0.5229492     0.2393799      145.1771,-25,5.75,
22:48:43:94,10534,24.7344,-0.43523    0.001169   0.0021433    -0.90032,-0.2794284    0.01370961      128.4002,-0.042236     0.15576    -0.25244,-1.5088      1.0898      1.4326,1.77148     0.450439      11.2266,0  0  0,24.7858      120.9973       145.195,0.4536133     0.1949463       145.195,-24,6.5,
22:48:44:28,10535,24.7344,-0.49119  0.00059948   0.0023769    -0.87105,-0.2709962   -0.07395341      121.1617,0.0026073  -0.0052948    -0.44409,-0.080383     -0.4248     0.30396,-0.308105      0.23999      10.0938,0  0  0,24.7858      120.9973      145.1968,0.4470215     0.1142578      145.1968,-31,7.5,
22:48:44:62,10536,24.7344,-0.56595   0.0024273   0.0014022    -0.82443,-0.2898899     0.1383776      111.0622,-0.11951    -0.03653    -0.61719,-1.4707     0.45337      1.1113,0.923828      1.14746      10.9063,0  0  0,24.7858      120.9973      145.2143,0.4086914    0.04629517      145.2143,-29,6.25,
22:48:44:96,10537,24.7344,-0.66652     0.00056   0.0014334    -0.74548,-0.165224   -0.0616434      96.4013,-0.019623   -0.055328    -0.81543,-0.1991     0.14099    -0.47852,0.17725     0.15491      9.3125,0  0  0,24.7858      120.9973      145.2505,0.3215332    -0.0262146      145.2505,-29,6,
22:48:45:30,10538,24.7344,-0.77874  -0.0013751    0.001966    -0.62734,-0.0186217    -0.274296      77.7084,0.094604    0.090088     -0.9248,-0.75342    -0.25977     0.28223,-0.380127     0.684082      10.0703,0  0  0,24.7858      120.9973      145.2624,0.2296143   -0.06762695      145.2624,-28,6.25,
22:48:45:64,10539,24.75,-0.86145  5.3281e-05   0.0030393    -0.50784,-0.182128    -0.296922      61.0403,0.030121    0.029999    -0.75391,0.32666    -0.72314    -0.48975,-0.4231    -0.66553      9.2969,0  0  0,24.7858      120.9973      145.2667,0.2105713     -0.135376      145.2667,-28,6.25,
22:48:45:98,10540,24.75,-0.91637   0.0012666   0.0019347    -0.40032,-0.221755    -0.145062       47.197,-0.094849    0.044952    -0.50195,-0.25537    -0.32764    -0.63281,-0.39331   -0.081177      9.1563,0  0  0,24.7858      120.9973      145.2534,0.2868652    -0.2416992      145.2534,-29,5.75,
22:48:46:32,10541,24.7344,-0.94631   0.0028275   0.0048172    -0.32321,-0.485052    -0.417654       37.717,-0.066833    -0.09668    -0.49097,0.80371    -0.38525     0.48462,0.490234    -0.887695      10.2656,0  0  0,24.7858      120.9973      145.2231,0.4111328    -0.4763184      145.2231,-29,5.75,
22:48:46:66,10542,24.7344,-0.96398   0.0002192   0.0033002    -0.26594,-0.124788    -0.357882      30.8459,-0.053436     0.17688    -0.22949,-1.2148     -1.8594      -2.707,-1.9619    -0.99707      7.0898,0  0  0,24.78581      120.9973      145.2113,0.3955078    -0.6542969      145.2113,-31,6,
22:48:47:00,10543,24.7344,-0.97003   0.0012645    0.002662    -0.24296,-0.214679      -0.2607       28.123,0.014587    0.032684   -0.079651,0.27881    -0.60498     -1.1953,-0.0015697     -0.6958      8.5938,0  0  0,24.78581      120.9973      145.1776,0.3535156    -0.7021484      145.1776,-33,6.25,
22:48:47:34,10544,24.6719,-0.96887   0.0025412   0.0032929    -0.24755,-0.375558    -0.293505      28.6665,0.077759    0.027344    0.044128,-0.87109     -0.4812     -1.0566,-0.95166   -0.054016      8.7344,0  0  0,24.78581      120.9973      145.1281,0.3127441    -0.6513672      145.1281,-35,6.25,
22:48:47:68,10545,24.6719,-0.96194   0.0023609   0.0016992    -0.27325,-0.313456    -0.113381      31.7161,-0.02861     0.09314     0.16101,-0.043396     0.28247  -0.0025883,0.12335     0.20679      9.7891,0  0  0,24.78581      120.9973      145.1211,0.3105469    -0.5957031      145.1211,-34,6.5,
22:48:48:02,10546,24.6719,-0.95311   0.0010069  0.00080926    -0.30262,-0.138037   -0.0534685      35.2302,0.083618     0.07312     0.18884,-0.27246    -0.47388     0.21472,-0.493408    -0.244507           10,0  0  0,24.78582      120.9973      145.1138,0.2919922     -0.503418      145.1138,-36,6,
22:48:48:36,10547,24.625,-0.94089   0.0024437  0.00021545    -0.33871,-0.271834    0.0716181      39.5967,-0.13489   -0.074768     0.22095,-0.17529    0.054291    -0.60889,-0.10382    0.098083      9.1797,0  0  0,24.78582      120.9973      145.1584,0.2929688    -0.4455566      145.1584,-36,6,
22:48:48:70,10548,24.625,-0.92672   0.0017961   0.0047433    -0.37573,-0.394975    -0.426376      44.1403,0.019348     -0.1698     0.11884,3.4375     -0.7085     -1.3027,2.0469     -2.9609      8.4453,0  0  0,24.78582      120.9973      145.2248,0.3566895    -0.4382324      145.2248,-37,6.5,
22:48:49:04,10549,24.625,-0.92472   0.0019482   0.0033279    -0.38062,-0.351596     -0.26767      44.7457,0.0005641    -0.01236    0.029251,0.50342    -0.73047     -1.5381,-0.11664    -0.92334      8.2422,0  0  0,24.78582      120.9973      145.2415,0.3857422    -0.4453125      145.2415,-38,6.25,
22:48:49:38,10550,24.5938,-0.9212   0.0010083   0.0019452    -0.38908,-0.19317    -0.160378      45.7952,-0.0051117   -0.070679    0.043152,0.17651     0.11115    -0.27759,0.23718   -0.081543      9.5078,0  0  0,24.78582      120.9973      145.2605,0.4116211    -0.4562988      145.2605,-38,6.25,
22:48:49:72,10551,24.5938,-0.91699   0.0033848  4.5165e-05     -0.3989,-0.357744     0.149976      47.0185,-0.023865    0.067932    0.026627,-0.60938     -1.1592  -0.0038223,-1.2949    -0.40723      9.7813,0  0  0,24.78583      120.9973       145.302,0.416748    -0.4414063       145.302,-39,6,
22:48:50:06,10552,24.5938,-0.91515   0.0046002   0.0011453    -0.40308,-0.53532     0.092376      47.5419,-0.11438     0.00243   -0.014824,-1.1035      1.5352      1.3027,0.370605      1.73438      11.1094,0  0  0,24.78583      120.9973      145.3283,0.4084473    -0.4111328      145.3283,-41,6,
22:48:50:40,10553,24.6406,-0.91859    0.001373   0.0026461    -0.39521,-0.264367    -0.216352      46.5582,-0.16724    -0.25562    -0.16272,-0.98584    -0.31885       -2.25,-0.86133       0.448      7.5469,0  0  0,24.78583      120.9973      145.3702,0.3447266    -0.3952637      145.3702,-42,6.75,
22:48:50:74,10554,24.6406,-0.93804  0.00057638   0.0016243    -0.34653,-0.126456    -0.151713      40.5501,0.063293   -0.072937    -0.34277,-0.30298     -0.3772     0.29712,-0.439697     -0.10675      10.0859,0  0  0,24.78583      120.9973      145.4001,0.2976074    -0.4138184      145.4001,-42,7,
22:48:51:08,10555,24.6406,-0.94806  -0.0009809   0.0045048    -0.31806,-0.0576232    -0.525153       37.092,0.26953     0.18188       0.028,2.6328    -0.37817     -1.2744,1.9346      -1.876         8.5,0  0  0,24.78583      120.9973      145.4056,0.3027344    -0.5214844      145.4056,-44,5.25,
22:48:51:42,10556,24.6406,-0.94733  -0.0016249   0.0007394    -0.32024,0.149261    -0.139897      37.3553,0.037598     0.14246    0.057434,-1.4121      2.4746      1.9238,0.394775      2.85938      11.7031,0  0  0,24.78584      120.9973      145.4084,0.253418    -0.5102539      145.4084,-43,5.5,
22:48:51:76,10557,24.6406,-0.94537   0.0066841    0.004961     -0.3259,-0.909416    -0.287812      38.0437,0.0062714  -0.0030899    -0.37329,3.84375     -17.2813     -14.7734,-7.58984     -15.9219     -5.19531,0  0  0,24.78584      120.9973      145.4162,0.1535645     -0.515625      145.4162,-45,6.25,
22:48:52:10,10558,24.6406,-0.94441   0.0017552   0.0014802    -0.32876,-0.245709   -0.0940678      38.3868,-0.1001  -0.0082321   -0.011971,-0.90088     0.17041     0.28735,-0.581543     0.639648      10.0781,0  0  0,24.78584      120.9973      145.4146,0.2084961    -0.4790039      145.4146,-45,6.25,
22:48:52:44,10559,24.6406,-0.94076  0.00072641   0.0018317    -0.33908,-0.14948    -0.169237      39.6417,0.18176    -0.36597  -0.0094376,-3.3652      -2.918      1.8242,-4.375      -0.1073      11.6406,0  0  0,24.78584      120.9973      145.4894,0.1955566    -0.5117188      145.4894,-48,6.25,
22:48:52:78,10560,24.6406,-0.94081  -0.0010339   0.0034832     -0.3389,-0.023804    -0.415676      39.6205,0.041534  -0.0065804    -0.03833,-0.81738      1.2412     0.74365,0.239868      1.47754      10.5313,0  0  0,24.78584      120.9973      145.5523,0.2247314    -0.5014648      145.5523,-49,6,
22:48:53:12,10561,24.6406,-0.94052  0.00028329   0.0020045    -0.33973,-0.108569    -0.205013      39.7207,-0.0755   -0.013695   -0.075806,-0.26001    -0.47949    -0.34277,-0.47021    -0.22778      9.4453,0  0  0,24.78584      120.9973      145.6446,0.2225342    -0.5024414      145.6446,-50,6.5,
22:48:53:46,10562,24.6719,-0.94386    0.001008   0.0016687    -0.33034,-0.172187    -0.142323      38.5792,0.03949  -0.0058708   -0.098267,-0.27295    -0.47241     -0.5293,-0.4834    -0.22351      9.2578,0  0  0,24.78585      120.9973      145.7384,0.1992188    -0.5092773      145.7384,-48,6.5,
22:48:53:80,10563,24.6719,-0.94377  0.00087881   0.0020951    -0.33059,-0.174412    -0.193292       38.609,-0.075867   -0.023285    0.026611,-0.1554    0.049896    -0.84473,-0.056946     0.10211      8.9453,0  0  0,24.78585      120.9973      145.7852,0.2011719    -0.5473633      145.7852,-49,5.75,
22:48:54:14,10564,24.6719,-0.9377  0.00062645   0.0035095    -0.34743,-0.207038    -0.352164      40.6609,0.10248     0.20178    0.097595,0.51514     -1.1309   -0.080261,-0.3064     -1.2178      9.7031,0  0  0,24.78585      120.9973      145.8022,0.1964111    -0.5214844      145.8022,-51,5.75,
22:48:54:48,10565,24.6719,-0.93239   0.0011739    0.002156    -0.36144,-0.214726    -0.181741      42.3774,-0.060638    0.013153    0.013885,0.26587      0.3667     0.38501,0.475586    0.0473938      10.1719,0  0  0,24.78585      120.9973      145.8376,0.1634521    -0.4777832      145.8376,-50,6,
22:48:54:82,10566,24.6719,-0.92537   0.0076066   0.0087237    -0.37888,-1.1855    -0.594814      44.5381,0.076721     0.19775   0.0054703,0.62598    -0.26367     0.32642,0.347412    -0.828125      10.1016,0  0  0,24.78585      120.9973      145.8305,0.08978271    -0.3847656      145.8305,-52,6.5,
22:48:55:16,10567,24.6719,-0.92739   0.0020935   0.0084698      -0.374,-0.585533    -0.810397      43.9306,0.0089417   -0.043213    -0.12524,1.5908    0.098145     0.86865,1.37207     -1.13965       10.625,0  0  0,24.78586      120.9973      145.8227,0.1573486    -0.4685059      145.8227,-52,6.75,
22:48:55:50,10568,24.6875,-0.92911  -0.0090707  0.00035193     -0.3697,0.950897    -0.421751      43.3929,0.10034    -0.22766    0.075928,-2.4629    -0.23657     -3.9082,-1.8926       1.625      5.8711,0  0  0,24.78586      120.9973      145.8124,0.03979492    -0.4296875      145.8124,-52,6.5,
22:48:55:84,10569,24.6875,-0.92637  0.00033336   0.0068515    -0.37654,-0.331047    -0.712948      44.2427,0.085632   -0.055206    0.021362,0.99951     -2.0742       -1.25,-0.62012     -2.2246      8.5391,0  0  0,24.78586      120.9973      145.8079,0.1088257    -0.4724121      145.8079,-50,6,
22:48:56:18,10570,24.6875,-0.92224    0.003079    0.004871    -0.38657,-0.541189    -0.378377      45.4855,0.022903     0.15491    0.071533,0.077209     -1.9707    -0.48315,-1.3037     -1.5205      9.2969,0  0  0,24.78586      120.9973      145.8237,0.1496582    -0.5141602      145.8237,-52,6.5,
22:48:56:52,10571,24.6875,-0.91619   0.0024182   0.0050749    -0.40072,-0.486926    -0.421759      47.2484,-0.0038719    0.018219    0.057617,-0.37158     -2.0664     -1.5654,-1.71     -1.1982      8.2266,0  0  0,24.78587      120.9973      145.8217,0.1809082    -0.5258789      145.8217,-53,6.75,
22:48:56:86,10572,24.6875,-0.91472   0.0028441   0.0048435    -0.40405,-0.522391    -0.376005      47.6662,0.036194     0.10883   -0.067139,0.063293    -0.51074    -0.44775,-0.28223    -0.47241      9.3359,0  0  0,24.78587      120.9973      145.8201,0.1717529    -0.4892578      145.8201,-56,5.75,
22:48:57:20,10573,24.7188,-0.92094 -7.0957e-05   0.0055556    -0.38966,-0.240591     -0.58947      45.8688,-0.041809  -0.0077362   -0.065796,-0.59424  -0.0073853    -0.66162,-0.32349     0.37915      9.1328,0  0  0,24.78587      120.9973      145.8237,0.1484375     -0.512207      145.8237,-57,6.5,
22:48:57:55,10574,24.7188,-0.92089  0.00088413   0.0082137    -0.38974,-0.460186    -0.827306      45.8817,-0.075073    0.025009    0.013725,1.541    -0.47021    -0.38916,0.86914     -1.5156       9.375,0  0  0,24.78587      120.9973      145.8173,0.154541      -0.53125      145.8173,-59,5.75,
22:48:57:89,10575,24.7188,-0.92189 -0.00089972   0.0023511    -0.38745,-0.00933889    -0.288317      45.5922,0.013573    -0.32764    -0.08606,-1.4473     0.43481     -2.1836,-0.63867      1.3379      7.6094,0  0  0,24.78587      120.9973      145.7975,0.09606934    -0.5307617      145.7975,-60,6,
22:48:58:23,10576,24.7188,-0.92826   0.0012795    0.010097     -0.3718,-0.56637     -1.01953      43.6609,-0.32739    -0.30859    -0.10895,3.0488     0.53174      2.8945,2.83984     -1.88379      12.6016,0  0  0,24.78588      120.9973      145.8077,0.1050415    -0.5410156      145.8077,-62,5.5,
22:48:58:57,10577,24.7188,-0.93366   0.0034949   0.0065824    -0.35809,-0.644061    -0.560842      41.9699,0.038971    -0.12366    -0.10498,3.8828     -2.4531     0.18237,1.3604     -4.5273      9.9063,0  0  0,24.78588      120.9973      145.7968,0.1096191    -0.5683594      145.7968,-59,6,
22:48:58:91,10578,24.7188,-0.93369  0.00027941   0.0059232    -0.35804,-0.272932    -0.622289      41.9619,0.081726   -0.015465   -0.010483,2.0117     -1.7217     -3.7383,0.41235     -2.6484      6.0352,0  0  0,24.78588      120.9973      145.8019,0.1263428    -0.6269531      145.8019,-60,6,
22:48:59:25,10579,24.7188,-0.93339   0.0013156   0.0043263    -0.35884,-0.318616    -0.408636      42.0597,-0.035583    0.079285    0.039551,-0.55469    -0.39551    -0.23413,-0.61523    0.022095      9.5625,0  0  0,24.78588      120.9973      145.7919,0.1182251    -0.6220703      145.7919,-61,5.75,
22:48:59:58,10580,24.7188,-0.9283   0.0011145   0.0031272    -0.37181,-0.251794    -0.285178      43.6549,0.015366 -2.6107e-05    0.072693,-1.5068    -0.76855     0.56787,-1.56738      0.44165      10.3672,0  0  0,24.78588      120.9973       145.785,0.1221313    -0.6166992       145.785,-62,6.75,
22:48:59:92,10581,24.7188,-0.92636  0.00076243   0.0019042    -0.37662,-0.163115    -0.169229      44.2495,-0.051117   -0.055908    0.026413,-0.66064      1.6523       1.918,0.722656      1.60547      11.7109,0  0  0,24.78589      120.9973      145.8082,0.1101685    -0.6044922      145.8082,-61,6.25,
22:49:00:26,10582,24.7188,-0.92179  0.00098182   0.0043244    -0.38767,-0.295826    -0.413171      45.6212,-0.040771    0.083923    0.065125,1.1621    -0.78369    -0.69043,0.3103     -1.4287      9.0859,0  0  0,24.78589      120.9973      145.8201,0.1578369    -0.6166992      145.8201,-62,6,
22:49:00:60,10583,24.7188,-0.91821   0.0019545    0.002457    -0.39608,-0.317165    -0.169811      46.6677,0.015213    0.066223    0.053162,0.20251     -1.3975    -0.52686,-0.85596     -1.1553      9.2578,0  0  0,24.78589      120.9973      145.8055,0.1871338    -0.6362305      145.8055,-65,6.5,
22:49:00:94,10584,24.7188,-0.91812  0.00073969   0.0024601    -0.39629,-0.18954    -0.225231      46.6939,-0.0089035   0.0095749   -0.098389,-0.48511    -0.11438     -0.1355,-0.37817      0.2417      9.6563,0  0  0,24.78589      120.9973      145.8173,0.1693115    -0.5991211      145.8173,-65,6.25,
22:49:01:28,10585,24.7188,-0.92733  -0.0016896   0.0016514    -0.37425,0.108723    -0.247947      43.9554,0.020767    0.042877    -0.13733,0.16589    -0.61084      -1.127,-0.26904    -0.53662      8.6641,0  0  0,24.7859      120.9973      145.8082,0.1480713    -0.6245117      145.8082,-75,6,
22:49:01:63,10586,24.7188,-0.92829 -3.8749e-05   0.0018009    -0.37186,-0.0726207    -0.193225      43.6611,0.063354     0.13452    0.063477,0.5874     -0.7251      1.7715,-0.0516357    -0.937012      11.5625,0  0  0,24.7859      120.9973      145.8066,0.1751709     -0.668457      145.8066,-72,5.75,
22:49:01:97,10587,24.7188,-0.93055  0.00035808   0.0008205    -0.36617,-0.0726114   -0.0724666      42.9596,0.035889    -0.05249    -0.12476,-0.6582    -0.64697     -1.3066,-0.90625   -0.033508      8.4844,0  0  0,24.7859      120.9973      145.8246,0.1804199    -0.6552734      145.8246,-72,5.75,
22:49:02:31,10588,24.6875,-0.94222   0.0009779    0.002594    -0.33499,-0.205164    -0.242539      39.1444,-0.027725    0.038483    -0.16895,-0.84277      -1.334    -0.31274,-1.457     -0.5415      9.4766,0  0  0,24.7859      120.9973      145.8254,0.1719971    -0.7197266      145.8254,-69,6.5,
22:49:02:65,10589,24.6875,-0.94392 -0.00070511   0.0073278     -0.3301,-0.200941    -0.819308      38.5526,0.042145    -0.24597    0.097473,3.2949     -0.6377     -2.0332,2.3066     -2.5801      7.7109,0  0  0,24.78591      120.9973      145.8246,0.213623    -0.7905273      145.8246,-73,5.75,
22:49:02:99,10590,24.6875,-0.93892  -0.0013092   0.0061141    -0.34409,-0.100227     -0.70947      40.2538,-0.11249   -0.076904    0.088501,0.64209      1.8809      1.4521,1.85547     0.986816      11.2188,0  0  0,24.78591      120.9973      145.8606,0.2265625    -0.7529297      145.8606,-71,5.75,
22:49:03:33,10591,24.7344,-0.93671  0.00056998   0.0035566    -0.35009,-0.203869      -0.3589       40.987,-0.12732   -0.022949    -0.02951,1.124     0.25049      1.7178,1.08887    -0.603516         11.5,0  0  0,24.78591      120.9973      145.8866,0.2005615    -0.7089844      145.8866,-70,5.75,
22:49:03:67,10592,24.7344,-0.94211  -0.0032194  -0.0018812    -0.33527,0.419837    0.0794074      39.1785,0.1698     0.22119    0.067261,-6.1953       2.627      6.2852,-3.19336      6.09766      16.0156,0  0  0,24.78591      120.9973      145.9482,0.1599121    -0.6865234      145.9482,-70,5.75,
22:49:04:01,10593,24.7344,-0.94215 -0.00053869   0.0033922    -0.33517,-0.0721282    -0.386921      39.1662,-0.05423  -0.0078278    0.026703,0.98096     -1.8496     -1.3311,-0.3501     -2.0684      8.4609,0  0  0,24.78592      120.9973       145.966,0.1992188    -0.7788086       145.966,-71,6,
22:49:04:35,10594,24.7188,-0.93257   0.0019988   0.0056329    -0.36095,-0.446602    -0.519287      42.3197,0.067139   -0.091614     0.14697,1.5596      -4.793      4.3164,-1.93848     -4.69141      14.0938,0  0  0,24.78592      120.9973       145.952,0.2325439    -0.7573242       145.952,-69,6.25,
22:49:04:69,10595,24.7188,-0.92295  0.00027329   0.0025296    -0.38492,-0.14048    -0.255478      45.2777,0.0050888    0.070496    0.075928,-0.1532    -0.22766     -1.1982,-0.23633   -0.071655      8.5938,0  0  0,24.78592      120.9973      145.9609,0.2775879    -0.7324219      145.9609,-69,6,
22:49:05:03,10596,24.7188,-0.91991  -0.0020346   0.0039277    -0.39211,0.0380012    -0.505458      46.1718,-0.081238    0.040192  -0.0015745,0.60303     0.23401    0.060913,0.67041    -0.27441      9.8438,0  0  0,24.78592      120.9973      145.9376,0.277832    -0.7197266      145.9376,-73,6,
22:49:05:37,10597,24.7031,-0.91779   0.0001429   0.0017078    -0.39706,-0.0927364    -0.173113      46.7898,-0.0074654    0.088501    0.048859,-0.46631    0.042175     0.27612,-0.265625     0.352051      10.0625,0  0  0,24.78592      120.9973      145.9036,0.307373    -0.7382813      145.9036,-69,6.5,
22:49:05:71,10598,24.7031,-0.91784 -0.00061929   0.0059023     -0.3969,-0.203326    -0.648971      46.7712,0.029999    0.046356   -0.083862,-0.49731    0.086853     0.49292,-0.164673     0.388428      10.2891,0  0  0,24.78593      120.9973      145.8933,0.3295898    -0.7504883      145.8933,-67,6.25,
22:49:06:05,10599,24.7031,-0.92155 -0.00021384   0.0022572    -0.38825,-0.0778414    -0.247879      45.6915,0.029297    0.033264   -0.087524,0.71094    -0.38818     0.30542,0.260986    -0.790527      10.0938,0  0  0,24.78593      120.9973      145.8514,0.3000488    -0.7324219      145.8514,-70,6.5,
22:49:06:39,10600,24.6875,-0.92643   0.0024594   0.0017418    -0.37645,-0.336235   -0.0788167      44.2283,-0.049805    0.011963   -0.064697,-0.96729     -1.4648    -0.61328,-1.7021    -0.43433      9.1719,0  0  0,24.78593      120.9973      145.8101,0.255127    -0.7416992      145.8101,-67,6,
22:49:06:73,10601,24.6875,-0.92649    0.004732   0.0019193    -0.37628,-0.585156  0.000267216       44.207,-0.20935    -0.29468   -0.052185,0.99023     0.19409        1.04,0.878418    -0.684082      10.8203,0  0  0,24.78594      120.9973      145.7973,0.3000488    -0.7744141      145.7973,-66,6,
22:49:07:07,10602,24.6563,-0.92747   0.0016432  -0.0016086    -0.37389,-0.105722     0.241367      43.9114,-0.024048  -0.0094528   -0.012062,-0.21179    -0.43066      0.2417,-0.491211     -0.18396      10.0313,0  0  0,24.78594      120.9973      145.7218,0.3503418    -0.8188477      145.7218,-68,6.5,
22:49:07:42,10603,24.6563,-0.92874 -0.00073296   -0.002071    -0.37073,0.165987     0.189269      43.5212,0.1665     0.18762    -0.07666,0.85596     0.14331    -0.39136,0.67236    -0.44214      9.4063,0  0  0,24.78594      120.9973      145.6377,0.3300781    -0.7773438      145.6377,-70,5.75,
22:49:07:76,10604,24.6563,-0.93364 -0.00086399  0.00058907    -0.35821,0.0682561   -0.0984887      41.9807,0.030685    0.028061   -0.052216,-0.16724     0.37158      0.6709,0.140259     0.404053      10.4609,0  0  0,24.78594      120.9973      145.5759,0.3276367    -0.8217773      145.5759,-73,6,
22:49:08:10,10605,24.6406,-0.93364  -0.0023219  0.00025793    -0.35822,0.237831    -0.122908      41.9811,0.13489     0.13281   -0.036591,0.011871    0.099792      0.8667,0.0854492     0.125122      10.6563,0  0  0,24.78595      120.9973      145.5227,0.3366699    -0.8144531      145.5227,-74,6.5,
22:49:08:44,10606,24.6406,-0.93634   -0.001444   0.0038399    -0.35108,0.000449378    -0.470106      41.1074,-0.16638    -0.22302   -0.098572,1.3242     0.82324      1.2168,1.65527     -0.26709      10.9844,0  0  0,24.78595      120.9973      145.4892,0.2810059      -0.78125      145.4892,-71,5.75,
22:49:08:78,10607,24.6406,-0.93947  -0.0028899  -0.0039727    -0.34259,0.467085     0.314239      40.0709,0.087891     0.10992   -0.072998,-3.2324    -0.35034     -1.0068,-2.7559      1.8906        8.75,0  0  0,24.78595      120.9973      145.4279,0.2880859    -0.7988281      145.4279,-68,6.25,
22:49:09:12,10608,24.6094,-0.93772  -0.0023325 -0.00051705    -0.34739,0.27122   -0.0372901       40.655,-0.012863    0.081665     0.18835,-2.123     -1.8809    -0.93359,-2.8359   0.0032387      8.8516,0  0  0,24.78595      120.9973      145.3946,0.3273926    -0.8720703      145.3946,-65,5.75,
22:49:09:46,10609,24.6094,-0.91839 -2.8605e-05   0.0045355    -0.39564,-0.202622    -0.478617      46.6131,0.28174     0.11475      0.3418,0.90527      5.3789      2.3613,4.63281      3.01172      12.1172,0  0  0,24.78596      120.9973      145.4197,0.3703613    -0.7734375      145.4197,-64,6.25,
22:49:09:80,10610,24.6094,-0.91134  0.00090745   0.0029802    -0.41164,-0.23535    -0.268428      48.6168,-0.040222   -0.096497   -0.060852,-0.33032       1.542      2.9609,1.01074      1.20996        12.75,0  0  0,24.78596      120.9973      145.4278,0.3928223    -0.7446289      145.4278,-67,6.25,
22:49:10:14,10611,24.625,-0.92079  -0.0024879   0.0026601    -0.39004,0.143621    -0.391878      45.9139,-0.17188     0.16479    -0.11182,0.40332      2.2617     0.68262,1.95898      1.29395      10.4609,0  0  0,24.78596      120.9973      145.4355,0.4023438      -0.78125      145.4355,-70,6.25,
22:49:10:48,10612,24.625,-0.91723   -0.001325  -0.0013695    -0.39836,0.201786    0.0834627       46.952,0.050018   -0.093323     0.18921,-3.1094     -2.6621      -1.543,-4.0703     0.49609      8.2422,0  0  0,24.78596      120.9973      145.5087,0.4484863    -0.9013672      145.5087,-71,6,
22:49:10:82,10613,24.625,-0.90477  -0.0025557 -0.00022044    -0.42589,0.275728     -0.10187      50.4137,0.012772    0.052002     0.13794,0.31592     0.45679    -0.74512,0.56592    0.091492      9.0391,0  0  0,24.78597      120.9973      145.5464,0.4873047    -0.8242188      145.5464,-72,5.75,
22:49:11:17,10614,24.625,-0.89967   -0.002147  0.00015407    -0.43657,0.213631    -0.123291      51.7709,0.077271     0.48364   -0.024826,-0.6626     -1.4707    -0.89014,-1.5879    -0.34888      8.8984,0  0  0,24.78597      120.9973      145.5873,0.4580078    -0.7597656      145.5873,-68,6.5,
22:49:11:51,10615,24.625,-0.90217 -0.00060616   0.0036053    -0.43137,-0.115551    -0.402683      51.1098,0.0044022    0.096924    -0.10156,0.8374     -1.0859    0.052643,-0.25732     -1.3525      9.8438,0  0  0,24.78597      120.9973      145.5943,0.4436035    -0.7763672      145.5943,-68,7.25,
22:49:11:85,10616,24.625,-0.91318  -0.0040091   0.0024116    -0.40754,0.306905     -0.43959      48.0999,-0.037994   0.0033131    -0.23962,0.29883    -0.47827     0.30103,-0.0770874    -0.491699      10.0938,0  0  0,24.78598      120.9973      145.5867,0.347168    -0.7363281      145.5867,-68,6.5,
22:49:12:19,10617,24.5938,-0.92464  -0.0050067   0.0053008    -0.38076,0.299239     -0.78013      44.7613,0.050995     0.71289    -0.21008,6.9727    0.014725    -0.76953,5.0273     -4.8359      9.0156,0  0  0,24.78598      120.9973      145.6086,0.4172363    -0.7944336      145.6086,-69,7,
22:49:12:53,10618,24.5938,-0.92808  -0.0025231 -0.00058777    -0.37236,0.293411   -0.0451475      43.7225,-0.051697     0.20874   -0.087952,-0.62939     0.28052       2.707,-0.276367     0.695313      12.4922,0  0  0,24.78598      120.9973      145.6157,0.3503418    -0.8286133      145.6157,-66,5.75,
22:49:12:87,10619,24.5938,-0.93084  -0.0013558   0.0023613    -0.36542,0.0457375    -0.308638      42.8675,-0.045868    -0.18945  0.00060892,3.1602    -0.39844     0.51611,2.12109      -2.4375      10.2891,0  0  0,24.78598      120.9973      145.6181,0.3779297    -0.8999023      145.6181,-67,6.25,
22:49:13:21,10620,24.625,-0.92928   0.0024387   0.0040202    -0.36934,-0.429849    -0.324887      43.3521,-0.36328    0.038879    0.038208,2.6484     0.95654      9.3984,2.68555     -1.33691      19.1563,0  0  0,24.78599      120.9973      145.6365,0.3969727    -0.8847656      145.6365,-67,6.75,
22:49:13:55,10621,24.625,-0.91912  0.00078724    -0.00752    -0.39392,0.256562      0.82759      46.4001,0.4314      0.5166     0.15906,-1.1426      1.8984     0.61426,0.387939      2.22656      10.3906,0  0  0,24.78599      120.9973      145.6523,0.4077148    -0.8535156      145.6523,-69,6.5,
22:49:13:89,10622,24.625,-0.91667   0.0010202  -0.0040014    -0.39962,0.0760812     0.467037      47.1102,-0.18323     0.19397   -0.051544,-0.10468      1.0859     0.56982,0.620605     0.811035      10.3672,0  0  0,24.78599      120.9973      145.6702,0.3879395    -0.8173828      145.6702,-68,6.5,
22:49:14:23,10623,24.6719,-0.91846  0.00076601  -0.0026418     -0.3955,0.0391108     0.312765       46.595,-0.11322   -0.048462   -0.022995,0.60107      1.5254      2.6445,1.46094     0.606445      12.4375,0  0  0,24.78599      120.9973      145.6858,0.3969727    -0.8320313      145.6858,-70,6.25,
22:49:14:57,10624,24.6719,-0.91597  0.00073407  0.00015543    -0.40125,-0.0841967    0.0174372      47.3121,0.13135     0.17603     0.07428,4.5586     -2.3164     -2.2871,1.3672     -4.9219      7.5039,0  0  0,24.786      120.9973      145.6974,0.4052734    -0.8491211      145.6974,-70,6,
22:49:14:91,10625,24.6719,-0.9077  -0.0062808     0.01102    -0.41943,0.123694     -1.44823      49.6001,0.3728    -0.26538      0.1637,6.7305      3.4277      3.9102,7.35156     -2.83789      13.5156,0  0  0,24.786      120.9973       145.717,0.3862305    -0.7841797       145.717,-68,6.5,
22:49:15:26,10626,24.6406,-0.90194   0.0010205  -0.0033034    -0.43184,0.0579965      0.39193      51.1699,0.22241     -0.1322     0.17212,-1.3838     -2.5703     0.38916,-2.92578    -0.494141      10.1641,0  0  0,24.786      120.9973      145.7136,0.3549805    -0.7617188      145.7136,-69,6.25,
22:49:15:60,10627,24.6406,-0.89494   -0.002444  -0.0030265    -0.44617,0.405383     0.185421      52.9978,0.036469     0.17102     0.10608,-0.75537      1.3076     -2.1016,0.5542      1.4473      7.6797,0  0  0,24.78601      120.9973      145.7069,0.3530273    -0.7192383      145.7069,-73,6.25,
22:49:15:94,10628,24.6406,-0.90043  -0.0022916  -0.0012044      -0.435,0.296481    0.0100387      51.5707,0.02832   -0.024826    -0.20007,-0.51318      1.0273     0.71289,0.48584      1.09961      10.4922,0  0  0,24.78601      120.9973      145.6852,0.2956543     -0.668457      145.6852,-73,6.25,
22:49:16:28,10629,24.6406,-0.92063  -0.0016131 -0.00063293    -0.39044,0.198492   -0.0053994      45.9639,-0.057892    0.016815     -0.3125,0.82373     -0.3147    -0.11548,0.34888    -0.78174      9.6719,0  0  0,24.78601      120.9973       145.667,0.2883301    -0.6967773       145.667,-76,6,
22:49:16:62,10630,24.6406,-0.93616   0.0002194  -0.0026235    -0.35155,0.0821537     0.290285      41.1648,-0.02655  -0.0049553    -0.18469,-1.1133   -0.024246     0.22559,-0.904297     0.725098      10.0078,0  0  0,24.78601      120.9973      145.6542,0.2858887    -0.7915039      145.6542,-71,6,
22:49:16:96,10631,24.625,-0.94684    0.000752  -0.0025773     -0.3217,0.0134193     0.307362      37.5316,-0.098022    -0.18298    -0.24841,-2.0645     0.23389    -0.98193,-1.5283      1.4336      8.8047,0  0  0,24.78601      120.9973      145.6517,0.2746582    -0.8193359      145.6517,-68,6,
22:49:17:30,10632,24.625,-0.96085  0.00068598   0.0018295    -0.27705,-0.133614    -0.179665      32.1682,-0.033508  -0.0096893    -0.33667,-0.5415    -0.90088    -0.71338,-0.90625    -0.50146      9.0781,0  0  0,24.78601      120.9973      145.6354,0.222168    -0.8095703      145.6354,-69,6.5,
22:49:17:64,10633,24.625,-0.98263   0.0026861  -0.0021764    -0.18555,-0.256187     0.302178      21.3857,-0.057037    0.019348    -0.67725,-0.84277       0.172    -0.28125,-0.77539     0.41455      9.5078,0  0  0,24.78602      120.9973      145.6139,0.09942627    -0.6918945      145.6139,-69,6.5,
22:49:17:98,10634,24.6406,-0.99701   0.0035108  0.00013325   -0.077207,-0.40229    0.015837      8.8561,0.022476    0.012436    -0.62402,-0.4895      -1.002     -1.3613,-0.63428    -0.97559      8.4219,0  0  0,24.78602      120.9973      145.5912,0.01351166    -0.6206055      145.5912,-74,6.5,
22:49:18:32,10635,24.6406,-0.9994   0.0048704  0.00015776     0.03417,-0.55717   -0.037138     -3.9162,0.063232    -0.12622    -0.72217,-0.73193    -0.22388    -0.77539,-0.69434    -0.36011      9.0156,0  0  0,24.78602      120.9973      145.5684,-0.03717041    -0.6308594      145.5684,-86,1.5,
22:49:18:66,10636,24.6406,-0.98839   0.0047143  -0.0020583     0.15187,-0.569782     0.151079     -17.4715,0.0065002     0.02887    -0.57617,0.12915     0.80176    -0.14355,-0.14856     0.70752      9.6563,0  0  0,24.78602      120.9973      145.5698,-0.08496094    -0.5800781      145.5698,-86,1.75,
22:49:19:00,10637,24.6094,-0.96733   0.0037888   0.0007309     0.25348,-0.39876    -0.191073     -29.3669,-0.1062  -0.0083466    -0.54443,-0.47632     -0.2876     0.13818,-0.23608    -0.56494      9.9219,0  0  0,24.78602      120.9973      145.5594,-0.1591797    -0.5366211      145.5594,-79,5.5,
22:49:19:34,10638,24.6094,-0.94691   0.0047528   5.411e-06     0.32147,-0.515525    -0.175672     -37.5039,-0.079529   -0.070618     -0.3125,-1.4082    -0.95752     0.79102,-0.487793     -1.72168      10.5625,0  0  0,24.78602      120.9973      145.5505,-0.3151855    -0.6108398      145.5505,-72,6,
22:49:19:68,10639,24.6094,-0.93038   0.0027574  0.00035882     0.36659,-0.278901    -0.154088     -43.0112,-0.012047   0.0098495    -0.11407,-0.65234    -0.93604    -0.31592,0.18811     -1.1768      9.4688,0  0  0,24.78603      120.9973      145.5465,-0.439209    -0.6469727      145.5465,-69,6.25,
22:49:20:02,10640,24.6563,-0.91671     0.00223   -0.001353     0.39955,-0.296203    0.0400286     -47.1009,-0.40527    -0.50244    -0.22107,-3.2598      3.0684     -2.7715,-4.4336    -0.37354      7.0352,0  0  0,24.78603      120.9973      145.5325,-0.4970703    -0.5986328      145.5325,-69,6.25,
22:49:20:36,10641,24.6563,-0.89461   0.0015635  0.00099893     0.44685,-0.109133    -0.182465     -53.0835,-0.072632   -0.042603    -0.20117,-0.36816     0.37891    -0.20667,-0.48828   -0.092834      9.5859,0  0  0,24.78603      120.9973        145.52,-0.5161133    -0.5371094        145.52,-69,6.75,
22:49:20:70,10642,24.6563,-0.89315   0.0032359  7.6224e-05     0.44974,-0.327263    -0.174568     -53.4537,-0.10834    0.040649    0.071289,-0.63818      1.8467     0.57324,-1.83496     0.518555      10.3672,0  0  0,24.78603      120.9973      145.5177,-0.5712891    -0.4980469      145.5177,-70,6.5,
22:49:21:04,10643,24.6563,-0.89381   0.0045619    0.003327     0.44841,-0.296304    -0.575177     -53.2826,0.12457    0.050049    0.048706,-0.92383     -2.1211     -1.9648,1.2227     -2.0391      7.8047,0  0  0,24.78603      120.9973      145.5069,-0.5561523    -0.5102539      145.5069,-70,6.5,
22:49:21:38,10644,24.6563,-0.89175    0.011522     0.01126     0.45225,-0.594154     -1.74807     -53.7744,-0.26294      -1.709    0.069092,5.8828     0.08429      4.1445,4.07422      4.61328      13.8125,0  0  0,24.78603      120.9973      145.4903,-0.4978027    -0.3696289      145.4903,-70,6.5,
22:49:21:72,10645,24.6563,-0.88345   0.0031217   0.0023858     0.46852,-0.187945    -0.409132     -55.8761,0.17798   -0.079468   -0.019989,0.46216    -0.70898      1.2441,0.935059   -0.0315552      11.0234,0  0  0,24.78603      120.9973      145.4754,-0.5488281    -0.4226074      145.4754,-72,5.5,
22:49:22:06,10646,24.6719,-0.88865 -0.00013754    0.001925     0.45858,0.115166    -0.188805     -54.5911,0.13171    0.020248    0.090576,0.72949    0.029938    -0.35352,0.4292     0.64307      9.4297,0  0  0,24.78603      120.9973      145.4676,-0.6049805    -0.4633789      145.4676,-70,6,
22:49:22:40,10647,24.6719,-0.88941 -0.00077434   0.0011937     0.45712,0.141449   -0.0811013     -54.4025,-0.011826   0.0048294   -0.031067,-0.60303     0.47974    -0.67236,-0.72754     -0.1897      9.1172,0  0  0,24.78603      120.9973      145.4678,-0.5913086    -0.4509277      145.4678,-69,6.75,
22:49:22:74,10648,24.6719,-0.88624 -0.00088659 -0.00035172     0.46323,0.0713682    0.0827811     -55.1912,-0.04834   -0.008606     -0.0495,0.26636    0.067383      0.5791,0.0837402     0.265381      10.3672,0  0  0,24.78603      120.9973      145.4619,-0.5410156    -0.4016113      145.4619,-69,6.5,
22:49:23:08,10649,24.6875,-0.87354   0.0012167    0.000378     0.48675,-0.100713    -0.105706     -58.2547,-0.024399  -0.0069695    -0.23193,-0.14795     0.33228     -0.1665,-0.34106    0.029236       9.625,0  0  0,24.78603      120.9973      145.4643,-0.5009766    -0.3581543      145.4643,-69,6.5,
22:49:23:42,10650,24.6875,-0.85781   0.0028356   0.0015398     0.51396,-0.188053    -0.318362      -61.856,-0.024353   -0.074707      -0.177,0.72168     -1.7637    -0.86914,1.9531    -0.22375      8.9063,0  0  0,24.78603      120.9973      145.4594,-0.519043    -0.3066406      145.4594,-70,6,
22:49:23:76,10651,24.6875,-0.82712   0.0029782  -0.0028789       0.562,-0.467689    0.0810631       -68.39,-0.069214   -0.028168    -0.49146,-1.375    -0.49268     -1.2793,-0.049866     -1.5352         8.5,0  0  0,24.78603      120.9973      145.4634,-0.4743652    -0.2595215      145.4634,-70,6,
22:49:24:10,10652,24.6406,-0.75765   0.0003322  -0.0021296     0.65266,-0.188116     0.160051     -81.4852,0.04776   -0.067078    -0.84521,-0.19617     -1.0674     0.11591,1.0098    -0.37134      9.9063,0  0  0,24.78603      120.9973      145.4708,-0.4350586    -0.1669922      145.4708,-75,5.75,
22:49:24:44,10653,24.6406,-0.64778  0.00027612  -0.0033797     0.76182,-0.315541     0.226771     -99.2511,-0.087036    0.050629    -0.84668,-0.66064     0.53857    0.033081,-0.46143    -0.80469      9.8125,0  0  0,24.78603      120.9973      145.4622,-0.371582   -0.06188965      145.4622,-81,5,
22:49:24:78,10654,24.6406,-0.55393  -0.0002888   -0.001907     0.83256,-0.1636042     0.1485994     -112.7262,0.088074  0.00045133    -0.61133,0.24841     0.84131     0.33228,-0.896484    -0.121155      10.1172,0  0  0,24.78603      120.9973      145.4654,-0.4226074    0.07348633      145.4654,-79,5.25,
22:49:25:12,10655,24.6563,-0.46521  -0.0032393  -0.0009011     0.88519,0.08128377     0.3766195     -124.5513,0.069214   -0.050476    -0.62793,-0.14978      1.1719    -0.69727,-0.9292    -0.77441      9.0859,0  0  0,24.78602      120.9973      145.4548,-0.4016113     0.1708984      145.4548,-75,6.5,
22:49:25:46,10656,24.6563,-0.38593   -0.006955  0.00095261      0.9225,0.4083181     0.6931057     -134.5929,-0.02655    0.049194    -0.45947,0.86621      1.6846     -2.0195,-1.9023      -0.521        7.75,0  0  0,24.78602      120.9973      145.4601,-0.3864746     0.2902832      145.4601,-75,5.75,
22:49:25:80,10657,24.6563,-0.34057  -0.0047206  -0.0013123     0.94021,0.04284845     0.5598131     -140.1756,0.13721      0.1109    -0.25293,0.0071335      3.0742     -4.6719,-2.0234     -2.3496      5.1016,0  0  0,24.78602      120.9973      145.4693,-0.4238281     0.4619141      145.4693,-79,5,
22:49:26:15,10658,24.6406,-0.31702 -0.00042083  -0.0018605     0.94842,-0.1869128     0.1133237     -143.0344,-0.065002     0.12561    -0.17163,0.10114     -3.3438      1.7764,1.88965      2.69141      11.5781,0  0  0,24.78602      120.9973       145.483,-0.4401855     0.5288086       145.483,-74,6.75,
22:49:26:49,10659,24.6406,-0.31257  -0.0028198  -0.0043471     0.94988,-0.3721848     0.4626421     -143.5726,0.036255     0.35132   -0.034973,-0.82764      4.3555     -4.2422,-1.9834     -4.0313         5.5,0  0  0,24.78602      120.9973      145.4954,-0.4077148     0.5683594      145.4954,-75,5.25,
22:49:26:83,10660,24.6406,-0.29617   0.0017099  -0.0065542     0.95511,-0.7753989    0.03530065     -145.5442,-0.69043    -0.19592     -0.3208,7.00391     -6.64844      10.5859,-2.00977      9.02344      20.5625,0  0  0,24.78601      120.9973      145.5212,-0.276123     0.4782715      145.5212,-69,6.25,
22:49:27:17,10661,24.6094,-0.28926   0.0053268   -0.005867     0.95722,-0.8201562    -0.3898245     -146.3688,-0.028854     -0.1416   -0.014008,-0.67041     0.76563    -0.73389,0.20947     -1.1406      9.0391,0  0  0,24.78601      120.9973      145.5358,-0.3571777     0.6538086      145.5358,-73,6.25,
22:49:27:51,10662,24.6094,-0.2864   0.0029121 -0.00094869     0.95811,-0.1997308    -0.2885858     -146.7145,0.24768     0.24658    -0.13489,2.7988     -3.8535       1.915,-0.199829      4.74609      11.7109,0  0  0,24.78601      120.9973      145.5491,-0.3344727     0.6206055      145.5491,-76,6,
22:49:27:85,10663,24.5938,-0.28031   0.0031314 -0.00044477     0.95991,-0.1495077    -0.3301575     -147.4424,0.059998   0.0052948  -0.0014868,-1.3066      1.2852     -2.1465,0.45435     -1.8018      7.6367,0  0  0,24.78601      120.9973      145.5446,-0.3164063      0.659668      145.5446,-82,4.25,
22:49:28:19,10664,24.5938,-0.29026   0.0023658 -0.00065659     0.95694,-0.1506924    -0.2375907      -146.252,-0.028381  -0.0098724    0.062866,0.029388     0.53467    -0.49243,-0.28149    -0.45508      9.2969,0  0  0,24.78601      120.9973      145.5399,-0.3059082     0.6621094      145.5399,-69,6.5,
22:49:28:53,10665,24.5938,-0.32465   0.0025383  0.00062309     0.94583,-0.02689623    -0.2982897     -142.1111,-0.079712    0.020935     0.23938,0.11517    -0.26685     -0.7334,0.11993     0.26978      9.0547,0  0  0,24.786      120.9973      145.5255,-0.3349609     0.6489258      145.5255,-69,6.5,
22:49:28:87,10666,24.625,-0.37236   0.0031076 -0.00084001     0.92808,-0.2219363    -0.2946483     -136.2768,-0.0086136   -0.070068     0.19397,0.78857   -0.076477     -0.3269,-0.45972     0.56396      9.4688,0  0  0,24.786      120.9973      145.5434,-0.3781738     0.6083984      145.5434,-72,5.5,
22:49:29:21,10667,24.625,-0.38225   0.0055181  -0.0028828     0.92404,-0.5469904    -0.4580214     -135.0502,0.00036407   -0.046509   -0.069824,0.41162     -2.3555      2.2852,1.47461      1.84277      12.0781,0  0  0,24.786      120.9973      145.5617,-0.3730469     0.5800781      145.5617,-69,6.25,
22:49:29:55,10668,24.625,-0.36646   0.0053842  -0.0042215     0.93041,-0.6762176    -0.3967677     -137.0014,-0.10065   -0.044159   -0.064575,-0.43506      1.1172    -0.92969,-0.3772     -1.2275      8.8438,0  0  0,24.78599      120.9973      145.5613,-0.3891602     0.6557617      145.5613,-72,5.75,
22:49:29:89,10669,24.625,-0.37227   0.0026116  -0.0042549     0.92811,-0.5639464   -0.09624185     -136.2874,0.004509   -0.022202   -0.048645,0.011414     0.53223   -0.021484,-0.3562    -0.47241      9.7656,0  0  0,24.78599      120.9973      145.5539,-0.3952637     0.6455078      145.5539,-67,6.5,
22:49:30:23,10670,24.625,-0.35913   0.0016369 -0.00020198     0.93329,-0.08896303     -0.166744     -137.9063,-0.0069733    0.056335   -0.097534,-0.0046463    -0.49878      1.4121,0.365234     0.349365      11.2031,0  0  0,24.78599      120.9973      145.5428,-0.3706055     0.6665039      145.5428,-68,6.5,
22:49:30:57,10671,24.625,-0.35058  -0.0017203   0.0026369     0.93653,0.3521005    0.07868163     -138.9542,0.081543   -0.045807   -0.097046,0.96387     0.30762     -1.6191,-0.93604     0.45728      8.1641,0  0  0,24.78599      120.9973      145.5397,-0.3356934     0.6791992      145.5397,-68,6.25,
22:49:30:91,10672,24.625,-0.34724 -0.00080705  0.00017817     0.93778,0.05125889    0.07963775     -139.3632,-0.047455    0.048859   -0.057831,-0.02269    -0.67578     0.79199,0.438477      0.50293      10.5781,0  0  0,24.78598      120.9973      145.5363,-0.3720703     0.7382813      145.5363,-73,6.5,
22:49:31:25,10673,24.625,-0.3412    -0.00261  -0.0014263     0.93999,-0.05158524     0.3369067     -140.1004,-0.025436   -0.044647     -0.0672,0.3562     -1.4092      1.1299,0.571777      1.29688      10.9219,0  0  0,24.78598      120.9973      145.5499,-0.3496094     0.7211914      145.5499,-69,6,
22:49:31:59,10674,24.625,-0.34633  -0.0027367  -0.0028576     0.93811,-0.1985831     0.4076012     -139.4747,0.067322   -0.075073    0.062866,0.031433      1.6465     -2.4395,-1.1406      -1.251      7.3398,0  0  0,24.78598      120.9973      145.5509,-0.3007813     0.7036133      145.5509,-69,6.5,
22:49:31:93,10675,24.625,-0.38052  -0.0026877   -0.009279     0.92472,-0.8661498     0.6894222     -135.2718,0.027054    -0.12976     0.16992,0.56006     -1.3369    -0.11206,0.44214      1.1992      9.7031,0  0  0,24.78597      120.9973      145.5444,-0.2937012     0.6376953      145.5444,-66,6.25,
22:49:32:27,10676,24.625,-0.40929  -0.0049124  -0.0070316     0.91236,-0.504812     0.8434096     -131.6815,0.066956   -0.036774     0.12354,0.44336    -0.60303     0.94824,0.00369453      0.64502      10.7422,0  0  0,24.78597      120.9973      145.5443,-0.2983398     0.5795898      145.5443,-66,6,
22:49:32:61,10677,24.625,-0.42186  -0.0068796  -0.0027295     0.90663,0.0489991     0.8467211      -130.094,0.011238  -0.0040817    0.004406,0.54004      1.3008     -1.7783,-1.46     -0.4165      7.9922,0  0  0,24.78597      120.9973      145.5426,-0.3100586      0.550293      145.5426,-69,6.25,
22:49:32:95,10678,24.625,-0.39834  -0.0048955  -0.0016148     0.91722,0.05373918     0.5882665     -133.0497,-0.058075   -0.001811    -0.23621,0.25952     0.37207     -0.1405,-0.54688   -0.061859      9.6406,0  0  0,24.78597      120.9973      145.5105,-0.300293     0.5385742      145.5105,-66,6,
22:49:33:29,10679,24.625,-0.3668  -0.0032687  -0.0021234     0.93029,-0.08897568     0.4377154     -136.9628,0.19458     0.21594    -0.14294,-2.3516     0.83545      2.1953,1.03516     -2.20898           12,0  0  0,24.78596      120.9973      145.5107,-0.3186035     0.6152344      145.5107,-64,6.75,
22:49:33:64,10680,24.625,-0.34473  -0.0039961 -0.00047081     0.93869,0.1072211     0.4484494      -139.668,0.041412     0.19006    -0.12048,-0.096802     -0.1759     0.28369,0.0906982    0.0947876      10.0703,0  0  0,24.78596      120.9973       145.497,-0.3129883     0.6582031       145.497,-70,5.75,
