UTCHr,UTCMin,UTCSec,UTCSubsec,Pack_count,IMUTemp,q0,q1,q2,q3,Roll,Pitch,Yaw,RollRate,PitchRate,YawRate,AccX,AccY,AccZ,RealAccX,RealAccY,RealAccZ,PosX,PosY,PosZ,Long,Lat,Height,VelX,VelY,VelZ,RSSI,SNR,
00:03:15:24,574,26.375,0.86713   -0.003037  -0.0015114     0.49807,-0.38804    0.023155  0.00012231,-0.00024462   0.0035057  0.00012231,-0.040131   -0.010193    0.013847,-0.03302   -0.036865      9.7969,0  0  0,0  0  0,0  0  0,-97,4.75,
00:03:15:58,575,26.375,0.86715  -0.0030517  -0.0014891     0.49803,-0.38823    0.026198  0.00071669,0.00019157   0.0032806  0.00071669,-0.04834   -0.011711    0.018555,-0.038971   -0.030563      9.7969,0  0  0,0  0  0,0  0  0,-98,4.5,
00:03:15:92,576,26.3906,0.86717  -0.0030304  -0.0014939       0.498,-0.38639    0.024487   0.0031013,0.00039077   0.0022068   0.0031013,-0.03949  -0.0045013   0.0098495,-0.027878    -0.03418      9.7891,0  0  0,0  0  0,0  0  0,-98,5.25,
00:03:16:26,577,26.3906,0.86719  -0.0030348    -0.00151     0.49797,-0.38774    0.023124   0.0012522,9.5665e-05   0.0028877   0.0012522,-0.040375  -0.0036869    0.014771,-0.027466   -0.033295      9.7969,0  0  0,0  0  0,0  0  0,-98,4.25,
00:03:16:60,578,26.4219,0.8672   -0.003054  -0.0015189     0.49794,-0.39016    0.023324   0.0019512,0.0010691   0.0024166   0.0019512,-0.044708  -0.0052834    0.016571,-0.031021   -0.030685      9.7969,0  0  0,0  0  0,0  0  0,-98,4.5,
00:03:16:94,579,26.4219,0.86721  -0.0030674   -0.001513     0.49793,-0.39115    0.024663   0.0028572,0.0004425   0.0016689   0.0028572,-0.043365  -0.0050697     0.01918,-0.030319   -0.031982      9.7969,0  0  0,0  0  0,0  0  0,-98,4.25,
21:49:38:62,107,25.8125,1  0.00039013  0.00029934  -0.0024069,0.044623    0.034409     -0.2758,-0.0027256    0.012703   -0.016953,0.0059891  -0.0024147   0.0050964,-4.1962e-05   0.0051994      9.7969,0  0  0,24.78579      120.9973      144.4277,0.02029419  -0.006141663      144.4277,-33,6.75,
21:49:38:96,108,25.8125,1   0.0004057  0.00030291  -0.0025427,0.046401    0.034829    -0.29136,-0.002037    0.012009   -0.013466,0.0036678  -0.0058556   0.0066032,-0.0023518    0.002121      9.7969,0  0  0,24.78579      120.9973       144.404,0.02027893  -0.008163452       144.404,-32,6.25,
21:49:39:30,109,25.8438,1  0.00038874  0.00025164  -0.0025308,0.044474    0.028948       -0.29,-0.0021133    0.010033   -0.010796,0.0016899   -0.010689   0.0012703,-0.0031033   -0.003067      9.7891,0  0  0,24.78579      120.9973      144.3551,0.01634216  -0.006267548      144.3551,-32,6.75,
21:49:39:64,110,25.8438,1  0.00037951   0.0002593  -0.0025813,0.043412    0.029826    -0.29579,-0.002491    0.010506   -0.012856,0.0018101   -0.013809   0.0031338,-0.0031624  -0.0063972      9.7891,0  0  0,24.78579      120.9973      144.3317,0.01464844  -0.006340027      144.3317,-33,7,
21:49:39:98,111,25.8438,1  0.00033763  0.00016796  -0.0025921,0.03864    0.019347    -0.29703,-0.0025272     0.01255   -0.014732,0.019104    0.010246   0.0067711,0.015602    0.016922      9.7969,0  0  0,24.78579      120.9973      144.3301,0.01443481  -0.001386642      144.3301,-33,6.75,
21:49:40:32,112,25.7969,1  0.00031663  0.00018796  -0.0025914,0.036227    0.021632    -0.29694,-0.0037251    0.011177   -0.015625,0.0092239  -0.0062408    0.014221,0.0055428 -0.00013673      9.8047,0  0  0,24.78579      120.9973      144.2963,0.01250458   0.001003265      144.2963,-34,7,
21:49:40:66,113,25.7969,1  0.00030318  0.00018863  -0.0025941,0.034686    0.021705    -0.29726,-0.0022316    0.010796   -0.013527,0.0083008   0.0071259    0.013138,0.0045776    0.013107      9.8047,0  0  0,24.78579      120.9973      144.2648,0.01387787   0.001964569      144.2648,-33,6.75,
21:49:41:00,114,25.7969,1  0.00027816  0.00019969   -0.002708,0.031812    0.022969     -0.3103,-0.0018091    0.010941   -0.011169,0.018616 -0.00036001    0.013245,0.014694   0.0052299      9.8047,0  0  0,24.78579      120.9973      144.2704,0.01647949   0.003862381      144.2704,-33,6.75,
21:49:41:33,115,25.7969,1  0.00026072  0.00020906  -0.0028975,0.029807    0.024043    -0.33202,-0.0024052    0.011017   -0.014191,0.014366  -0.0099411   0.0041046,0.010315   -0.004776      9.7969,0  0  0,24.78579      120.9973      144.2105,0.01511383   0.009002686      144.2105,-33,6.75,
21:49:41:67,116,25.7969,1  0.00027158  0.00011063  -0.0029134,0.031083    0.012768    -0.33385,-0.0032616    0.013382   -0.017441,0.023834  -0.0026073   0.0080795,0.021439   0.0027504      9.7969,0  0  0,24.78579      120.9973      144.1941,0.01794434   0.008628845      144.1941,-33,6.5,
21:49:42:01,117,25.7969,1  0.00026953  0.00014456  -0.0030317,0.030836    0.016659     -0.3474,-0.0018692     0.01239   -0.014786,0.014969  -0.0077858   0.0096588,0.012039  -0.0023804      9.7969,0  0  0,24.78579      120.9973      144.1472,0.01782227     0.0107193      144.1472,-33,6.5,
21:49:42:35,118,25.7656,1  0.00028446  0.00011125  -0.0030922,0.032557    0.012849    -0.35434,-0.0020409   0.0088959   -0.010414,0.012405  -0.0037308   0.0013046,0.010437   0.0019312      9.7891,0  0  0,24.78579      120.9973      144.1226,0.01863098   0.007228851      144.1226,-33,6.5,
21:49:42:69,119,25.7656,1  0.00028778  0.00013584  -0.0031359,0.032928    0.015669    -0.35934,-0.0029564    0.011696   -0.014458,0.014679 -1.1563e-05    0.011208,0.011932   0.0056458      9.7969,0  0  0,24.78579      120.9973      144.0837,0.02119446   0.003578186      144.0837,-33,6.5,
21:49:43:03,120,25.7656,0.99999  0.00030079  0.00016014  -0.0032483,0.034408    0.018462    -0.37222,-0.0026417    0.011429   -0.014847,0.011101 -0.00033307   0.0059395,0.0079117   0.0055847      9.7969,0  0  0,24.78579      120.9973      144.0558,0.02326965  -0.002101898      144.0558,-33,6.5,
21:49:43:37,121,25.7969,0.99999  0.00033009  0.00015381  -0.0032796,0.037768    0.017749    -0.37581,-0.0026493     0.01265   -0.016144,-0.004425  -0.0074463  -0.0052223,-0.0075607  -0.0010605      9.7813,0  0  0,24.78579      120.9973      144.0582,0.02441406  -0.004192352      144.0582,-33,6.5,
21:49:43:71,122,25.7969,0.99999  0.00034282  0.00013986  -0.0033004,0.039232    0.016156    -0.37819,-0.0011177   0.0089874  -0.0096359,0.011307  -0.0048294    0.004879,0.0087814   0.0020638      9.7969,0  0  0,24.78579      120.9973      144.0673,0.02467346  -0.006267548      144.0673,-35,6.25,
21:49:44:05,123,25.7969,0.99999  0.00036746  0.00015809  -0.0033685,0.042047    0.018258      -0.386,-0.0020752   0.0082855  -0.0098419,-0.0052071  -0.0058365    0.010483,-0.0080185   0.0013418      9.7969,0  0  0,24.78579      120.9973      144.0723,0.0247345   -0.01165771      144.0723,-37,6,
21:49:44:39,124,25.8125,0.99999  0.00038146  0.00016565  -0.0033413,0.043648    0.019128    -0.38288,-0.0017815     0.01033   -0.010941,0.0018339  -0.0058899   0.0090561,-0.0013266   0.0016356      9.7969,0  0  0,24.78579      120.9973      144.0785,0.02523804   -0.01387787      144.0785,-38,6.75,
21:49:44:73,125,25.8125,0.99999  0.00035183  9.6741e-05  -0.0033309,0.04028     0.01122    -0.38169,-0.0020447    0.012955   -0.013451,-0.0025291    0.020126   0.0063286,-0.0047684    0.027008      9.7969,0  0  0,24.78579      120.9973       144.054,0.02223206   -0.01205444       144.054,-42,6,
21:49:45:07,126,25.8125,0.99999  0.00034664  0.00014321  -0.0034226,0.039666    0.016547     -0.3922,-0.0019627    0.012001   -0.016342,-0.0041313   -0.012871  -0.0004158,-0.0069618  -0.0060921      9.7891,0  0  0,24.78579      120.9973      144.0266,0.02119446  -0.008338928      144.0266,-46,5.5,
21:49:45:41,127,25.8125,0.99999  0.00033898  0.00013263  -0.0033856,0.038793     0.01533    -0.38796,-0.0025291    0.011398   -0.012604,0.0018415  -0.0089417    0.010712,-0.00075245  -0.0023193      9.7969,0  0  0,24.78579      120.9973      144.0011,0.02076721  -0.007202148      144.0011,-39,-1,
21:49:45:75,128,25.8125,0.99999  0.00029922  0.00014971  -0.0033816,0.034229    0.017271     -0.3875,-0.0017843   0.0093842   -0.010628,0.003994  -0.0014124   0.0019102,0.0012197   0.0045128      9.7891,0  0  0,24.78579      120.9973      143.9492,0.01852417  -0.004062653      143.9492,-47,5.75,
21:49:46:09,129,25.8125,0.99999  0.00029199  0.00018904  -0.0035286,0.033383    0.021781    -0.40435,-0.0020237    0.010582   -0.012344,-0.0059471  -0.0053329   0.0080032,-0.0095825   0.0003581      9.7969,0  0  0,24.78579      120.9973      143.9282,0.01713562  -0.004859924      143.9282,-46,6.25,
21:49:46:43,130,25.8125,0.99999   0.0002728  0.00014835  -0.0035224,0.031201     0.01711    -0.40364,-0.0024147    0.014046   -0.016586,0.0002414  -0.0037098   0.0013475,-0.0029469   0.0016108      9.7891,0  0  0,24.78579      120.9973      143.9227,0.0151062  -0.003093719      143.9227,-40,6.25,
21:49:46:78,131,25.8125,0.99999  0.00028046  0.00013729  -0.0035322,0.032082    0.015846    -0.40476,-0.0024605     0.01281   -0.016312,-0.002924  -0.0034199   0.0072861,-0.0057793   0.0020275      9.7969,0  0  0,24.78579      120.9973      143.8907,0.01180267  -0.003772736      143.8907,-37,6.25,
21:49:47:12,132,25.8125,0.99999  0.00029324  0.00014475  -0.0035892,0.033543    0.016707    -0.41129,-0.0019512   0.0099792   -0.012161,-0.013237   -0.009964   0.0076065,-0.015915  -0.0042877      9.7969,0  0  0,24.78579      120.9973      143.9024,0.008987427  -0.007827759      143.9024,-38,6.5,
21:49:47:46,133,25.8125,0.99999  0.00028189  0.00017445  -0.0035913,0.03223    0.020106    -0.41153,-0.0021477    0.010712   -0.012733,-0.0040703  -0.0062561    0.013443,-0.007431 -0.00075626      9.8047,0  0  0,24.78579      120.9973      143.8865,0.007396698   -0.00944519      143.8865,-36,6.5,
21:49:47:80,134,25.8125,0.99999  0.00026477  0.00020942    -0.00381,0.030248    0.024113    -0.43659,-0.0027199    0.012016   -0.015167,-0.0065346 -0.00079489   0.0077744,-0.010742   0.0042839      9.7969,0  0  0,24.78579      120.9973      143.8587,0.004138947   -0.01041412      143.8587,-51,6,
21:49:48:14,135,25.8594,0.99999  0.00027326  0.00015714  -0.0038555,0.031244    0.018128     -0.4418,-0.0024986    0.012955   -0.015839,0.00054026   0.0019989   0.0040474,-0.002758   0.0073204      9.7969,0  0  0,24.78579      120.9973      143.8824,0.002403259   -0.01281738      143.8824,-56,6,
21:49:48:48,136,25.8594,0.99999  0.00025427  0.00019899  -0.0039184,0.029047    0.022917    -0.44901,-0.0020332    0.011154    -0.01339,-0.0070343   0.0015993   0.0042419,-0.010971   0.0065346      9.7969,0  0  0,24.78579      120.9973      143.9089,0.001365662   -0.01413727      143.9089,-51,6.25,
21:49:48:82,137,25.8594,0.99999  0.00026835  0.00015026  -0.0038881,0.030683    0.017338    -0.44554,-0.0020485   0.0089264   -0.010803,-0.015671  -0.0033913   0.0066452,-0.018402   0.0017557      9.7969,0  0  0,24.78579      120.9973      143.8721,-0.001054764   -0.01515198      143.8721,-50,6.5,
21:49:49:16,138,25.875,0.99999  0.00026828  0.00014424  -0.0038624,0.030678    0.016648     -0.4426,-0.0019464   0.0092773   -0.011147,-0.011772    0.001688  -0.0007534,-0.01445   0.0068703      9.7891,0  0  0,24.78579      120.9973      143.8741,-0.004573822   -0.01500702      143.8741,-45,6.25,
21:49:49:50,139,25.875,0.99999  0.00025869  0.00011042  -0.0038892,0.029595    0.012769    -0.44567,-0.0020866   0.0096588   -0.011429,-0.0021858 -1.5259e-05   0.0054817,-0.0042305   0.0050468      9.7969,0  0  0,24.78579      120.9973      143.9023,-0.006961823   -0.01269531      143.9023,-48,6.5,
21:49:49:83,140,25.875,0.99999  0.00024118  0.00015672  -0.0041258,0.027563    0.018073    -0.47278,-0.0025234    0.011459   -0.014214,-0.0079117  -0.0010881   0.0017538,-0.011024   0.0035324      9.7891,0  0  0,24.78579      120.9973      143.8757,-0.008735657  -0.008979797      143.8757,-49,7,
21:49:50:17,141,25.875,0.99999  0.00023924  0.00013479  -0.0041467,0.02735     0.01556    -0.47518,-0.0020275    0.012497   -0.016251,-0.0071259   -0.003582  -0.0018921,-0.0098953   0.0010548      9.7891,0  0  0,24.78579      120.9973      143.8897,-0.01246643  -0.007919312      143.8897,-48,6.5,
21:49:50:51,142,25.875,0.99999  0.00023352  0.00012735   -0.004194,0.026698    0.014705    -0.48059,-0.0024662    0.011635   -0.013809,-0.0079727    -0.00284   0.0042992,-0.010521   0.0016365      9.7969,0  0  0,24.78579      120.9973      143.8582,-0.01690674  -0.005088806      143.8582,-46,6,
21:49:50:85,143,25.875,0.99999  0.00019303  0.00015526   -0.004264,0.022043    0.017885    -0.48861,-0.0020847   0.0090408   -0.010529,-0.004261   0.0086288   0.0073814,-0.0071945    0.012383      9.7969,0  0  0,24.78579      120.9973      143.8318,-0.0201416 -0.0002371073      143.8318,-47,6.5,
21:49:51:19,144,25.875,0.99999    0.000198  0.00018707  -0.0043318,0.022596    0.021535    -0.49638,-0.001976     0.01091   -0.013168,0.002758  -0.0045586   0.0092468,-0.00086975 -0.00064135      9.7969,0  0  0,24.78579      120.9973      143.8268,-0.02285767 -0.0004720688      143.8268,-52,7,
21:49:51:53,145,25.875,0.99999  0.00016271  0.00021983  -0.0044507,0.018532    0.025273    -0.51002,-0.0029716    0.013611   -0.017227,0.00080299   0.0042076   0.0043907,-0.0038033   0.0073128      9.7969,0  0  0,24.78579      120.9973      143.7865,-0.0246582    0.00428009      143.7865,-49,6.5,
21:49:51:87,146,25.875,0.99999  0.00015482  0.00017164  -0.0043898,0.017654    0.019747    -0.50303,-0.0017338    0.010307   -0.013496,0.0037766  -0.0011473   0.0063972,0.00048637   0.0019569      9.7969,0  0  0,24.78579      120.9973      143.7503,-0.02558899   0.007034302      143.7503,-48,6.5,
21:49:52:21,147,25.8281,0.99999  0.00014187  0.00021326  -0.0045281,0.016146    0.024511    -0.51888,-0.002655    0.013138    -0.01619,-0.00099754   0.0034599   0.0042953,-0.0054207   0.0061722      9.7969,0  0  0,24.78579      120.9973       143.708,-0.02656555    0.00957489       143.708,-42,6.25,
21:49:52:55,148,25.8281,0.99999  0.00016845  0.00011595  -0.0044194,0.019244    0.013372    -0.50643,-0.0019293    0.009491   -0.011551,-0.009079  -0.0064049   0.0041847,-0.011147  -0.0031624      9.7969,0  0  0,24.78579      120.9973      143.6468,-0.02778625     0.0114975      143.6468,-35,6,
21:49:52:89,149,25.8281,0.99999  0.00018242  0.00011769  -0.0044198,0.020844    0.013579    -0.50647,-0.0023422    0.011169   -0.013123,-0.012985  9.2864e-05  -0.0049477,-0.015312   0.0035305      9.7813,0  0  0,24.78579      120.9973      143.6139,-0.02703857   0.009674072      143.6139,-39,7,
21:49:53:23,150,25.8594,0.99999  0.00019224  0.00011045  -0.0044696,0.021972    0.012755    -0.51218,-0.0022926    0.011086   -0.013985,0.0015221  0.00025964  -0.0063782,-0.00066042   0.0040207      9.7813,0  0  0,24.78579      120.9973      143.5822,-0.02577209   0.007358551      143.5822,-38,6.25,
21:49:53:57,151,25.8594,0.99999  0.00021167  0.00010244  -0.0045436,0.024203    0.011849    -0.52066,-0.0026283    0.013649   -0.017288,-0.0048981   -0.002821  -0.0041199,-0.0071487   0.0012341      9.7813,0  0  0,24.78579      120.9973      143.5693,-0.02452087   0.003210068      143.5693,-36,5.75,
21:49:53:91,152,25.8594,0.99999   0.0002295  7.2162e-05   -0.004552,0.026261   0.0083888    -0.52162,-0.0024185    0.011314   -0.013954,-0.0073051 -0.00087643  0.00062847,-0.0087585   0.0035286      9.7891,0  0  0,24.78579      120.9973      143.5871,-0.0259552   0.001196861      143.5871,-36,6,
21:49:54:25,153,25.875,0.99999  0.00024937  4.9782e-05  -0.0045539,0.02855   0.0058347    -0.52183,-0.0015888   0.0093155   -0.011307,-0.014648  -0.0033169    0.010841,-0.01545   0.0015001      9.7969,0  0  0,24.78579      120.9973      143.5863,-0.02548218   -0.00280571      143.5863,-37,6,
21:49:54:59,154,25.875,0.99999  0.00025689  0.00010928  -0.0047016,0.029378    0.012661    -0.53876,-0.0020103    0.010643   -0.013161,-0.017334  -0.0003593   0.0021019,-0.019455   0.0045242      9.7891,0  0  0,24.78579      120.9973      143.6211,-0.02690125  -0.005458832      143.6211,-39,7,
21:49:54:93,155,25.875,0.99999  0.00026326  0.00011746  -0.0046875,0.030104    0.013601    -0.53714,-0.0023212    0.010719   -0.013863,-0.0068359   0.0016603    0.007019,-0.0091476   0.0067368      9.7969,0  0  0,24.78579      120.9973      143.6946,-0.02963257  -0.007221222      143.6946,-39,6.75,
21:49:55:28,156,25.8906,0.99999  0.00026051  0.00012428  -0.0046951,0.029785    0.014382    -0.53801,-0.0013304   0.0094604   -0.011765,-0.0035324  -0.0013733    0.012718,-0.005825   0.0037823      9.8047,0  0  0,24.78579      120.9973      143.7146,-0.0289917  -0.009757996      143.7146,-40,6.25,
21:49:55:62,157,25.8906,0.99999  0.00028761  8.8165e-05  -0.0046754,0.03291    0.010257    -0.53577,-0.0025311    0.011185   -0.013062,-0.011429   0.0072975   0.0029087,-0.01326    0.012787      9.7891,0  0  0,24.78579      120.9973      143.7858,-0.02926636   -0.01102448      143.7858,-40,6.25,
21:49:55:96,158,25.8906,0.99999  0.00027104  0.00013132   -0.004745,0.030988    0.015195    -0.54374,-0.0015993   0.0097046   -0.012276,0.0034828  0.00086784   0.0079956,0.001009   0.0062637      9.7969,0  0  0,24.78579      120.9973      143.8346,-0.02868652   -0.01049805      143.8346,-40,6.75,
21:49:56:30,159,25.9063,0.99999  0.00025202  0.00020546  -0.0048845,0.028764    0.023685    -0.55972,-0.0019722    0.010124   -0.013412,-0.0012465  -0.0037422   0.0070114,-0.0051689    0.001193      9.7969,0  0  0,24.78579      120.9973      143.8258,-0.0255127  -0.008605957      143.8258,-38,6.75,
21:49:56:64,160,25.9063,0.99999  0.00024857  0.00019252  -0.0049063,0.028376    0.022201    -0.56222,-0.0021038    0.010773    -0.01387,-0.0085144   0.0033607 -0.00078106,-0.012314   0.0081406      9.7891,0  0  0,24.78579      120.9973      143.8432,-0.02626038  -0.007232666      143.8432,-38,6.75,
21:49:56:98,161,25.9063,0.99999  0.00026956  0.00020185  -0.0049573,0.030774    0.023284    -0.56806,-0.0025463    0.012695   -0.016296,-0.0044899 -0.00010175 -0.00087166,-0.0086288    0.005085      9.7891,0  0  0,24.78579      120.9973      143.8503,-0.026474  -0.008522034      143.8503,-37,5.75,
21:49:57:32,162,25.9063,0.99999  0.00024155  0.00020801  -0.0049752,0.027561    0.023974    -0.57011,-0.0026379    0.012276   -0.014259,-0.013596  -0.0052643   0.0040245,-0.017761 -0.00072384      9.7969,0  0  0,24.78579      120.9973      143.8175,-0.02767944  -0.009292603      143.8175,-35,6,
21:49:57:66,163,25.9063,0.99999  0.00024864   0.0001598  -0.0049453,0.028401    0.018452    -0.56669,-0.0024834   0.0097351   -0.012024,-0.012184   0.0081787  -0.0040398,-0.015282    0.012886      9.7813,0  0  0,24.78579      120.9973      143.8394,-0.02896118  -0.009475708      143.8394,-38,6.75,
21:49:58:00,164,25.8906,0.99999  0.00025728  0.00019965  -0.0050174,0.029366    0.023026    -0.57495,-0.0017986    0.015511    -0.01651,0.01297   -0.028519    0.015411,0.0088806   -0.023315      9.8047,0  0  0,24.78579      120.9973      143.8445,-0.03010559   -0.00958252      143.8445,-39,6.25,
21:49:58:33,165,25.8906,0.99999    0.000255  0.00022999  -0.0050623,0.029087    0.026502    -0.58009,-0.0024033    0.011238   -0.015366,-0.013054    0.008934  0.00022125,-0.0177    0.013756      9.7891,0  0  0,24.78579      120.9973      143.7946,-0.02824402  -0.008758545      143.7946,-35,6.25,
21:49:58:67,166,25.8906,0.99999  0.00027433  0.00015485  -0.0050246,0.031346    0.017903    -0.57577,-0.0028267    0.014404   -0.018677,-0.001339   0.0051537   0.0016813,-0.004776    0.010437      9.7891,0  0  0,24.78579      120.9973      143.8203,-0.02720642  -0.004592896      143.8203,-42,6.25,
21:49:59:01,167,25.8906,0.99999  0.00022822  0.00015343  -0.0050503,0.026063    0.017713    -0.57872,-0.0023403      0.0112   -0.014519,0.0089188    0.017487    0.015823,0.0056953    0.022018      9.8047,0  0  0,24.78579      120.9973      143.8024,-0.02815247  -0.002368927      143.8024,-36,6.5,
21:49:59:35,168,25.8906,0.99999  0.00023235  0.00016295  -0.0050984,0.02653    0.018808    -0.58424,-0.0025063     0.01284   -0.014786,-0.0090256   -0.017197    0.006073,-0.012245   -0.012772      9.7969,0  0  0,24.78579      120.9973       143.837,-0.02780151  -0.001378059       143.837,-35,6.25,
21:49:59:69,169,25.8906,0.99999  0.00021337  0.00016467  -0.0050893,0.024354    0.018994    -0.58319,-0.002491     0.01033   -0.012314,0.011139  -0.0030975 -0.00034618,0.0079956   0.0011549      9.7891,0  0  0,24.78579      120.9973      143.8185,-0.02508545  -0.003974915      143.8185,-33,4.25,
21:50:00:03,170,25.9063,0.99999  0.00019237  0.00022245  -0.0051831,0.021911    0.025605    -0.59394,-0.0019054    0.011444   -0.012688,-0.014473   0.0025158  -0.0049133,-0.018906   0.0061417      9.7813,0  0  0,24.78579      120.9973      143.8073,-0.02529907 -0.0003244877      143.8073,-34,6.25,
21:50:00:37,171,25.9063,0.99999  0.00019163  0.00020687  -0.0051712,0.021837    0.023819    -0.59257,-0.0024071    0.011635   -0.015236,0.0025482  -0.0042725   0.0085678,-0.0015392 -0.00052452      9.7969,0  0  0,24.78579      120.9973      143.8229,-0.02351379  -0.002243042      143.8229,-33,4.25,
21:50:00:71,172,25.9063,0.99999  0.00021078  0.00015003  -0.0051255,0.024065    0.017316    -0.58734,-0.0016479    0.011238   -0.013382,-0.0094833  -0.0033283  -0.0023994,-0.012428   0.0007453      9.7891,0  0  0,24.78579      120.9973      143.8553,-0.02366638  -0.002468109      143.8553,-35,5.25,
21:50:01:05,173,25.8906,0.99999  0.00018565  0.00015599  -0.0052026,0.021181    0.017986    -0.59618,-0.0022526    0.011406    -0.01329,-0.0063667 -0.00032902   0.0023537,-0.0094757   0.0032253      9.7891,0  0  0,24.78579      120.9973       143.875,-0.02203369  -0.002897263       143.875,-34,5.5,
21:50:01:39,174,25.8906,0.99999  0.00018718  0.00015417  -0.0052131,0.021356    0.017778    -0.59738,-0.0023823   0.0085983   -0.010132,0.0011168   -0.019516   0.0055084,-0.0014782   -0.015854      9.7969,0  0  0,24.78579      120.9973      143.9151,-0.02250671  0.0003323555      143.9151,-34,6,
21:50:01:73,175,25.8906,0.99999  0.00019206  0.00015249  -0.0052335,0.021917    0.017589    -0.59972,-0.0023232    0.012398   -0.014465,0.0019217    0.005909  -0.0019951,-0.001276   0.0096664      9.7891,0  0  0,24.78579      120.9973        143.93,-0.02290344   0.001335144        143.93,-34,6.75,
21:50:02:07,176,25.8906,0.99999  0.00021512  0.00012534  -0.0052217,0.024576    0.014492    -0.59837,-0.0016174    0.012573   -0.013832,-0.015823   0.0016165   0.0053329,-0.018463   0.0057144      9.7969,0  0  0,24.78579      120.9973      143.9326,-0.02340698   0.003200531      143.9326,-32,6.5,
21:50:02:41,177,25.8906,0.99999   0.0002177  8.3637e-05   -0.005162,0.024897   0.0097127    -0.59152,-0.0026131    0.014397   -0.016724,0.0082016  -0.0052795   0.0074272,0.0062675 -0.00097179      9.7969,0  0  0,24.78579      120.9973      143.9803,-0.02444458   0.002939224      143.9803,-32,6,
21:50:02:75,178,25.8906,0.99999  0.00019311  0.00010935  -0.0052547,0.022062    0.012647    -0.60215,-0.0026684    0.012611   -0.014786,0.0082016  -0.0041199  -0.0010424,0.005928 -0.00030398      9.7891,0  0  0,24.78579      120.9973      143.9691,-0.02227783  0.0008387566      143.9691,-31,5.75,
21:50:03:09,179,25.8906,0.99999  0.00019238  9.7875e-05  -0.0052548,0.021985    0.011331    -0.60216,-0.0017729   0.0096207   -0.011314,-0.0091553  -0.0025558   0.0050087,-0.010925   0.0011539      9.7969,0  0  0,24.78579      120.9973      144.0118,-0.02403259   0.002353668      144.0118,-32,6,
21:50:03:43,180,25.8906,0.99999  0.00017302  0.00015101  -0.0053464,0.019734     0.01741    -0.61265,-0.0018501   0.0093842   -0.010666,-0.0094681   -0.000916    0.012238,-0.012268   0.0023994      9.8047,0  0  0,24.78579      120.9973      144.0627,-0.02644348     0.0031147      144.0627,-33,7,
21:50:03:78,181,25.8906,0.99999  0.00018312  0.00012201  -0.0053167,0.020909    0.014093    -0.60925,-0.0022659    0.010056   -0.012344,-0.014053  -0.0011511   0.0012445,-0.016357   0.0022717      9.7891,0  0  0,24.78579      120.9973      144.0402,-0.02755737   0.002607346      144.0402,-33,6.75,
21:50:04:12,182,25.9219,0.99999  0.00018283  0.00014808  -0.0054018,0.020859    0.017081    -0.61901,-0.0024128     0.01268   -0.017105,-0.0091095  -0.0051346   -0.003191,-0.012131  -0.0016832      9.7891,0  0  0,24.78579      120.9973      144.0745,-0.02839661  0.0007801056      144.0745,-33,6.75,
21:50:04:46,183,25.9219,0.99999  0.00016223  0.00012305  -0.0054766,0.018513    0.014202    -0.62757,-0.0024014    0.011909   -0.015854,-0.0090714    0.012787   0.0051956,-0.011726    0.015839      9.7969,0  0  0,24.78579      120.9973      144.0926,-0.02975464 -6.425381e-05      144.0926,-32,6.25,
21:50:04:80,184,25.9219,0.99998  0.00015408  0.00019421  -0.0056078,0.017532    0.022354    -0.64261,-0.0023785    0.013458   -0.013519,-0.028717   0.0030079   0.0094604,-0.032806   0.0056725      9.7969,0  0  0,24.78578      120.9973      144.0472,-0.029953  -0.001282692      144.0472,-34,6,
21:50:05:14,185,25.9063,0.99998  0.00018955  0.00014666  -0.0055736,0.021627    0.016927    -0.63868,-0.0023842   0.0092697   -0.011795,-0.011421    -0.01886  -0.0011663,-0.013931   -0.015305      9.7891,0  0  0,24.78578      120.9973       144.073,-0.03106689   -0.00096035       144.073,-36,6,
21:50:05:48,186,25.9063,0.99998  0.00017615  0.00021917  -0.0056326,0.020044    0.025228    -0.64545,-0.0018778    0.011688    -0.01239,0.0019102    0.010605   0.0040054,-0.0025845    0.014091      9.7891,0  0  0,24.78578      120.9973      144.0881,-0.03082275   -0.00239563      144.0881,-36,6.25,
21:50:05:82,187,25.9063,0.99998  0.00017383  0.00024532  -0.0056739,0.01976    0.028224    -0.65018,-0.0029564    0.012917   -0.016312,-0.012772   -0.012741   0.0032234,-0.017624  -0.0095749      9.7891,0  0  0,24.78578      120.9973      144.0552,-0.02853394  -0.002492905      144.0552,-38,6.75,
21:50:06:16,188,25.8906,0.99998  0.00017866  0.00022292  -0.0057112,0.020327    0.025662    -0.65445,-0.0028362    0.012444   -0.015808,-0.0099716 -0.00017786   0.0064583,-0.014488   0.0031281      9.7969,0  0  0,24.78578      120.9973      144.0551,-0.02809143   0.000767231      144.0551,-37,6.75,
21:50:06:50,189,25.8906,0.99998  0.00019015  0.00027872  -0.0057868,0.021604    0.032064    -0.66312,-0.0016842   0.0088577   -0.011131,-0.0038834  -0.0059242   0.0049667,-0.009079  -0.0022182      9.7969,0  0  0,24.78578      120.9973      144.0435,-0.02792358 -0.0004599094      144.0435,-38,6.5,
21:50:06:83,190,25.8906,0.99998  0.00018548  0.00029866  -0.0057676,0.021057    0.034346    -0.66092,-0.0023746   0.0094986    -0.01004,-0.0025482   0.0014744   0.0046921,-0.0082855   0.0050354      9.7969,0  0  0,24.78578      120.9973      143.9937,-0.02655029 -0.0008907318      143.9937,-38,6.75,
21:50:07:17,191,25.9063,0.99998  0.00020872  0.00029895  -0.0057743,0.023719    0.034395    -0.66168,-0.0026436    0.010445   -0.011528,-0.0009346  -0.0099411   0.0092621,-0.0066452  -0.0059319      9.7969,0  0  0,24.78578      120.9973      143.9898,-0.02526855  -0.003170013      143.9898,-38,6.75,
21:50:07:51,192,25.9063,0.99998   0.0002024  0.00029143  -0.0057744,0.023    0.033529     -0.6617,-0.0017948   0.0085373  -0.0092697,-0.0033436  -0.0034332   0.0092621,-0.0087891  0.00050879      9.7969,0  0  0,24.78578      120.9973      143.9233,-0.02500916  -0.003639221      143.9233,-38,6.5,
21:50:07:85,193,25.9063,0.99998  0.00020962   0.0003148  -0.0057915,0.023811    0.036212    -0.66365,-0.0028152    0.012749   -0.016006,-0.0071144   0.0031891   0.0076523,-0.013512   0.0071259      9.7969,0  0  0,24.78578      120.9973      143.9069,-0.02520752  -0.005332947      143.9069,-38,7,
21:50:08:19,194,25.9375,0.99998  0.00021708  0.00031075  -0.0058022,0.024669    0.035753    -0.66488,-0.0022316    0.011398   -0.013824,-0.0034542  -0.0067177 -0.00065422,-0.0095215  -0.0025387      9.7891,0  0  0,24.78578      120.9973      143.8725,-0.02488708  -0.006988525      143.8725,-38,7.5,
21:50:08:53,195,25.9375,0.99998  0.00019193  0.00033818  -0.0058342,0.021767     0.03888    -0.66854,-0.0020428    0.010948   -0.013344,0.0043373  -0.0079575   0.0034466,-0.0022049  -0.0041618      9.7891,0  0  0,24.78578      120.9973      143.8231,-0.02398682  -0.007492065      143.8231,-37,6,
21:50:08:87,196,25.9375,0.99998  0.00018853  0.00030831  -0.0058233,0.021398    0.035455     -0.6673,-0.0016899   0.0088882   -0.010483,-0.0112  -0.0054359   0.0061913,-0.016983  -0.0018492      9.7969,0  0  0,24.78578      120.9973       143.801,-0.02261353  -0.005840302       143.801,-34,6.5,
21:50:09:21,197,25.9375,0.99998  0.00017981  0.00032946   -0.005871,0.020382    0.037873    -0.67276,-0.0023575    0.011581   -0.014008,-0.012299   0.0045929  -0.0021629,-0.018875   0.0079193      9.7891,0  0  0,24.78578      120.9973        143.76,-0.02134705  -0.007465363        143.76,-35,6,
21:50:09:55,198,25.9375,0.99998  0.00017007   0.0003494  -0.0059014,0.019252    0.040153    -0.67625,-0.0028152    0.013313   -0.017395,-0.0036297   -0.010124   0.0017843,-0.010597  -0.0069313      9.7891,0  0  0,24.78578      120.9973       143.714,-0.01745605   -0.00806427       143.714,-36,6.25,
21:50:09:89,199,25.9219,0.99998  0.00016557  0.00032203  -0.0058378,0.018757    0.037012    -0.66897,-0.0021038    0.012024    -0.01487,-0.0013533    0.006897   0.0053825,-0.0078583    0.010101      9.7969,0  0  0,24.78578      120.9973      143.7014,-0.01646423  -0.008163452      143.7014,-37,6.75,
21:50:10:23,200,25.9219,0.99998  0.00019685  0.00033905  -0.0059173,0.022327    0.038985    -0.67807,-0.0023479    0.009346   -0.012657,-0.0026531   0.0022659   0.0048904,-0.0091782   0.0060425      9.7969,0  0  0,24.78578      120.9973      143.6736,-0.01794434  -0.009490967      143.6736,-39,6.75,
21:50:10:57,201,25.9219,0.99998  0.00019374  0.00038974  -0.0059751,0.021933    0.044793    -0.68469,-0.0017662   0.0092392   -0.010658,-0.012642  -0.0018063   0.0095139,-0.020111   0.0018435      9.7969,0  0  0,24.78578      120.9973      143.6204,-0.01702881   -0.00969696      143.6204,-38,6.75,
21:50:10:91,202,25.9531,0.99998  0.00018921  0.00037762  -0.0059354,0.021424      0.0434    -0.68015,-0.0026817    0.010948   -0.012512,-0.0089035  0.00094748   0.0046883,-0.016327   0.0044632      9.7969,0  0  0,24.78578      120.9973      143.5842,-0.01870728    -0.0116806      143.5842,-38,6.25,
21:50:11:25,203,25.9531,0.99998  0.00019598  0.00040898  -0.0060041,0.022175    0.046999    -0.68801,-0.0019627   0.0089188   -0.011063,-0.010597   0.0004611   0.0053215,-0.018433   0.0041542      9.7969,0  0  0,24.78578      120.9973      143.5083,-0.01858521   -0.01165771      143.5083,-38,6.5,
21:50:11:59,204,25.9531,0.99998  0.00019423   0.0004417  -0.0060152,0.021952    0.050748    -0.68929,-0.002491    0.013115   -0.016403,-0.0019665  -0.0062447   0.0071068,-0.010773  -0.0025368      9.7969,0  0  0,24.78578      120.9973      143.4553,-0.01748657    -0.0110321      143.4553,-38,6.5,
21:50:11:93,205,25.9531,0.99998  0.00021736   0.0003955  -0.0059827,0.024636     0.04547    -0.68556,-0.0022068    0.011452   -0.014091,-0.0072403  -0.0058861  -0.0020638,-0.014977  -0.0017576      9.7891,0  0  0,24.78578      120.9973      143.4029,-0.01799011   -0.01347351      143.4029,-38,6.75,
21:50:12:28,206,25.9531,0.99998  0.00022555  0.00040473  -0.0060322,0.025566    0.046534    -0.69123,-0.0023937    0.011627   -0.014908,-0.00041795  -0.0094986  -0.0035267,-0.0083084   -0.005146      9.7891,0  0  0,24.78579      120.9973       143.348,-0.01660156   -0.01672363       143.348,-38,6.5,
21:50:12:62,207,25.9531,0.99998  0.00020791  0.00045563  -0.0060618,0.023508    0.052355    -0.69463,-0.0018167   0.0087814   -0.010216,-0.0048637  -0.0080719  6.7711e-05,-0.013489  -0.0040703      9.7891,0  0  0,24.78579      120.9973       143.308,-0.01585388   -0.01860046       143.308,-38,7,
21:50:12:96,208,25.9531,0.99998  0.00019515  0.00051025  -0.0061178,0.022004    0.058607    -0.70105,-0.002018    0.011307   -0.014061,0.0032749  -0.0031414    0.010452,-0.0067368  0.00068617      9.7969,0  0  0,24.78579      120.9973      143.2687,-0.01376343   -0.01985168      143.2687,-38,7,
21:50:13:30,209,25.9531,0.99998  0.00016749  0.00056261  -0.0061444,0.018797    0.064587    -0.70409,-0.0031452    0.014084   -0.016876,-0.0033894  -0.0018167   0.0060501,-0.014709   0.0012684      9.7969,0  0  0,24.78579      120.9973      143.2189,-0.01087189   -0.01913452      143.2189,-38,6.75,
21:50:13:64,210,25.9531,0.99998  0.00016848  0.00054534  -0.0061184,0.018924    0.062608    -0.70111,-0.0022564     0.01152    -0.01619,0.00063181  -0.0013371  -0.0055618,-0.010086   0.0019026      9.7813,0  0  0,24.78579      120.9973       143.198,-0.01048279   -0.02005005       143.198,-38,6.5,
21:50:13:98,211,25.9688,0.99998  0.00015751  0.00055175   -0.006155,0.01766    0.063335     -0.7053,-0.0020142    0.010925   -0.011894,0.0092468   0.0028038   0.0065689,-0.0016041   0.0059624      9.7969,0  0  0,24.78579      120.9973       143.178,-0.01033783    -0.0202179       143.178,-38,7,
21:50:14:32,212,25.9688,0.99998  0.00014447   0.0005841  -0.0062137,0.016139    0.067035    -0.71204,-0.0023003    0.011765    -0.01622,-0.0072975  -0.0099411   0.0044098,-0.018707  -0.0072746      9.7969,0  0  0,24.78579      120.9973      143.1346,-0.007640839   -0.02008057      143.1346,-38,6.5,
21:50:14:66,213,25.9688,0.99998  0.00013894  0.00059728  -0.0062532,0.015493    0.068542    -0.71656,-0.0024261   0.0097656   -0.012062,0.013847  -0.0046616   0.0070686,0.0023098  -0.0018549      9.7969,0  0  0,24.78579      120.9973      143.1334,-0.004940033    -0.0193634      143.1334,-38,7.5,
21:50:15:00,214,25.9531,0.99998  0.00011338  0.00064107  -0.0062577,0.012532    0.073541    -0.71708,-0.0024395    0.012009   -0.015686,-0.0078278  -0.0021362   0.0028915,-0.020462 -0.00011039      9.7891,0  0  0,24.78579      120.9973      143.1254,-0.004077911   -0.01945496      143.1254,-37,6,
21:50:15:33,215,25.9531,0.99998  0.00011341  0.00064262  -0.0062539,0.012535    0.073719    -0.71664,-0.0015078    0.010048   -0.012436,0.0040665  -0.0024223    0.012772,-0.0084229  -0.0001514      9.8047,0  0  0,24.78579      120.9973      143.1045,-0.002084732   -0.01834106      143.1045,-37,6.25,
21:50:15:67,216,25.9531,0.99998  0.00011353   0.0005935  -0.0061496,0.012592    0.068088    -0.70469,-0.0028439    0.011841   -0.014847,-0.011589   -0.006073  -0.0081253,-0.023209  -0.0041237      9.7813,0  0  0,24.78579      120.9973      143.1095,-0.0003106594   -0.01795959      143.1095,-37,5.75,
21:50:16:01,217,25.9531,0.99998  0.00012372  0.00059664  -0.0061605,0.013756    0.068456    -0.70594,-0.0023155     0.01162    -0.01432,0.0031681   0.0027657   0.0063553,-0.0086288   0.0051498      9.7969,0  0  0,24.78579      120.9973       143.091,0.0004608631   -0.02033997       143.091,-37,6.5,
21:50:16:35,218,25.9531,0.99998  0.00010649  0.00063172  -0.0062591,0.011749    0.072465    -0.71723,-0.0019484   0.0095367   -0.011436,-0.0047417  -0.0010443    0.012413,-0.016983  0.00093794      9.8047,0  0  0,24.78579      120.9973      143.0888,0.0008497238   -0.02102661      143.0888,-35,6.25,
21:50:16:69,219,25.9531,0.99998  7.7367e-05  0.00066227  -0.0063192,0.0083858    0.075945    -0.72413,-0.0022221    0.010582   -0.012772,-0.0042534  -0.0012074    0.002182,-0.017181  0.00017643      9.7891,0  0  0,24.78579      120.9973      143.0846,0.0001639128   -0.02056885      143.0846,-34,6.25,
21:50:17:03,220,26,0.99998  6.2194e-05  0.00065096  -0.0062893,0.0066576    0.074638     -0.7207,-0.002243   0.0097733   -0.013474,0.0038319 -0.00086594    0.012665,-0.0088043   0.0003233      9.8047,0  0  0,24.78579      120.9973       143.072,0.001559258   -0.02001953       143.072,-38,6.75,
21:50:17:37,221,26,0.99998  8.6054e-05  0.00065147  -0.0062454,0.0093947    0.074713    -0.71567,-0.0025368    0.012497   -0.016663,-0.01265  -0.0018244   0.0066986,-0.025543 -0.00040436      9.7969,0  0  0,24.78579      120.9973      143.0627,0.002660751     -0.022995      143.0627,-40,6.5,
21:50:17:71,222,26,0.99998  9.0806e-05   0.0006292  -0.0062508,0.0099547    0.072164    -0.71629,-0.0026455    0.011848   -0.014381,-0.0049706  -0.0021706  -0.0018129,-0.017349 -0.00056887      9.7891,0  0  0,24.78579      120.9973      143.0661,0.004051208    -0.0239563      143.0661,-34,6.75,
21:50:18:05,223,25.9844,0.99998  9.0616e-05  0.00068814  -0.0063384,0.0098838     0.07892    -0.72633,-0.0023689    0.012619   -0.015839,-0.0044174    0.001462    0.016373,-0.018097   0.0030861      9.8047,0  0  0,24.78579      120.9973        143.05,0.006500244    -0.0243988        143.05,-35,6,
21:50:18:39,224,25.9844,0.99998  7.2341e-05  0.00070357  -0.0063167,0.0077803    0.080674    -0.72384,-0.0019217   0.0089951   -0.010361,-0.0068817  -0.0037708   0.0016632,-0.020416  -0.0024929      9.7891,0  0  0,24.78579      120.9973      143.0324,0.007331848   -0.02432251      143.0324,-35,6,
21:50:18:73,225,25.9844,0.99998  7.6553e-05  0.00074899  -0.0063581,0.0082264    0.085882    -0.72858,-0.001708    0.011292   -0.013809,-0.0072441  -0.0035133  -0.0028324,-0.021896  -0.0021458      9.7891,0  0  0,24.78579      120.9973      143.0176,0.007987976   -0.02552795      143.0176,-35,5.75,
21:50:19:08,226,26,0.99998   8.628e-05  0.00069712  -0.0062252,0.0093894    0.079944    -0.71335,-0.0026073    0.012352   -0.015015,0.0078812  -0.0015583  -0.0008173,-0.0058861  0.00011027      9.7891,0  0  0,24.78579      120.9973      142.9827,0.01040649   -0.02558899      142.9827,-34,6.25,
21:50:19:42,227,26,0.99998  6.0532e-05  0.00070197  -0.0062436,0.0064341    0.080482    -0.71546,-0.0020714     0.01194   -0.015602,0.001523  0.00075006   0.0044632,-0.012337   0.0018873      9.7969,0  0  0,24.78579      120.9973      142.9455,0.01176453   -0.02362061      142.9455,-34,6,
21:50:19:76,228,25.9844,0.99998  4.6158e-05  0.00074293  -0.0062744,0.0047551    0.085165    -0.71899,-0.0016699   0.0096207   -0.011177,-0.0062408  -0.0038013  -0.0034618,-0.020599  -0.0030079      9.7891,0  0  0,24.78579      120.9973       142.912,0.01293182   -0.02471924       142.912,-34,6.5,
21:50:20:10,229,25.9844,0.99998  3.5655e-05  0.00074656  -0.0062592,0.0035502    0.085574    -0.71725,-0.0027218   0.0094376   -0.012077,8.0466e-06  -0.0017366   0.0031757,-0.014442   -0.001174      9.7891,0  0  0,24.78579      120.9973      142.9039,0.01521301   -0.02514648      142.9039,-34,6.25,
21:50:20:44,230,25.9844,0.99998  2.2834e-05  0.00077649  -0.0062911,0.0020568    0.088993    -0.72091,-0.0016899    0.009697   -0.010941,-0.0031128  -0.0021667  0.00050354,-0.018158  -0.0017986      9.7891,0  0  0,24.78579      120.9973      142.8898,0.01649475   -0.02429199      142.8898,-35,5.75,
21:50:20:78,231,25.9844,0.99998  2.8344e-05  0.00078317  -0.0062014,0.0026914    0.089763    -0.71063,-0.0017052   0.0095444     -0.0121,0.0058212  0.00020659   0.0024586,-0.0093765  0.00079393      9.7891,0  0  0,24.78579      120.9973      142.8839,0.01777649   -0.02290344      142.8839,-34,5.75,
21:50:21:12,232,25.9844,0.99998  3.5509e-05  0.00076453  -0.0061969,0.0035261    0.087632    -0.71011,-0.0019741    0.012398   -0.017288,-0.01075   0.0072021  -0.0054741,-0.02594   0.0076981      9.7813,0  0  0,24.78579      120.9973      142.8995,0.01823425   -0.02262878      142.8995,-36,6,
21:50:21:46,233,25.9844,0.99998  1.0455e-05  0.00075418  -0.0061935,0.00066278    0.086429    -0.70972,-0.0031738     0.01223   -0.015251,0.0056458    0.012596    0.010902,-0.0094147    0.012688      9.7969,0  0  0,24.78579      120.9973      142.9522,0.01882935   -0.02088928      142.9522,-36,5.75,
21:50:21:80,234,26,0.99998 -2.9448e-06  0.00075478  -0.0061639,-0.00087058    0.086488    -0.70634,-0.00079346   0.0094681  -0.0099411,-0.00040293     0.01046   0.0070419,-0.015167    0.010452      9.7969,0  0  0,24.78579      120.9973       142.977,0.01771545   -0.01849365       142.977,-34,6.25,
21:50:22:14,235,26,0.99998  1.3741e-05  0.00072667   -0.006145,0.0010628    0.083278    -0.70417,-0.002121   0.0091324   -0.011559,-0.0035725  -0.0039749    0.013283,-0.017578  -0.0038223      9.8047,0  0  0,24.78579      120.9973      143.0146,0.02011108   -0.02172852      143.0146,-34,5.25,
21:50:22:48,236,26,0.99998  1.8459e-06  0.00077095  -0.0062204,-0.00033802    0.088344    -0.71281,-0.0016994    0.010178   -0.011047,-0.0023098   0.0045586  -0.0046654,-0.017365    0.004528      9.7813,0  0  0,24.78579      120.9973       143.083,0.02108765   -0.02120972       143.083,-37,6,
21:50:22:82,237,26,0.99998 -1.0617e-07  0.00074586  -0.0062327,-0.00054487    0.085467    -0.71422,-0.0019264   0.0090942   -0.011032,0.018326   0.0071678   0.0027981,0.0038261   0.0073357      9.7891,0  0  0,24.78579      120.9973      143.1247,0.02238464   -0.02255249      143.1247,-42,6.25,
21:50:23:16,238,26,0.99998 -4.7795e-06  0.00077819  -0.0062766,-0.0011074    0.089169    -0.71925,-0.0022907    0.014076   -0.016998,0.01458   0.0013409   0.0085068,-0.00098324   0.0013313      9.7969,0  0  0,24.78579      120.9973      143.1724,0.02360535   -0.02145386      143.1724,-38,6.5,
21:50:23:50,239,26,0.99998 -2.0619e-06  0.00080343  -0.0063122,-0.00081742    0.092063    -0.72334,-0.0024776    0.013229   -0.016296,0.02121    0.012314  -0.0046272,0.0051193    0.012413      9.7813,0  0  0,24.78579      120.9973      143.2088,0.02816772   -0.02145386      143.2088,-36,6,
21:50:23:83,240,25.9844,0.99998  1.6641e-05  0.00081425  -0.0063486,0.0013145    0.093317     -0.7275,-0.0032883    0.011841   -0.016373,0.0079651  -0.0045853    0.013153,-0.0080261  -0.0043602      9.8047,0  0  0,24.78579      120.9973      143.2278,0.02992249   -0.02442932      143.2278,-37,6,
21:50:24:17,241,25.9844,0.99998  1.6348e-05  0.00079296  -0.0063251,0.0012986    0.090876    -0.72481,-0.0016241   0.0093079   -0.010513,0.012505  -0.0011082   0.0065804,-0.0028553 -0.00066614      9.7969,0  0  0,24.78579      120.9973      143.2635,0.03070068   -0.02316284      143.2635,-36,6,
21:50:24:51,242,25.9844,0.99998  3.3583e-06  0.00087649  -0.0064306,-0.00026105     0.10044     -0.7369,-0.0020847    0.010117   -0.012245,0.013947   0.0016727    0.015511,-0.0031719   0.0018244      9.8047,0  0  0,24.78579      120.9973      143.2436,0.03192139   -0.02407837      143.2436,-38,6.5,
21:50:24:85,243,26,0.99998  9.0674e-06  0.00094914   -0.006502,0.00033184     0.10877    -0.74508,-0.0028744     0.01442   -0.018356,0.006958   0.0012541   0.0073776,-0.011986   0.0013409      9.7969,0  0  0,24.78579      120.9973      143.2469,0.0345459   -0.02301025      143.2469,-37,6,
21:50:25:19,244,26,0.99998  7.4971e-06  0.00096118  -0.0065365,0.00013914     0.11015    -0.74904,-0.0026703    0.013298   -0.016327,0.0091705 -0.00046158   0.0035229,-0.0098724 -0.00035834      9.7891,0  0  0,24.78579      120.9973      143.2395,0.03622437   -0.02371216      143.2395,-39,6.25,
21:50:25:53,245,26,0.99998   7.702e-06   0.0010048  -0.0065791,0.00012503     0.11515    -0.75392,-0.0029202     0.01268   -0.015335,0.011292   0.0037785   0.0071983,-0.008606   0.0038834      9.7969,0  0  0,24.78579      120.9973      143.2268,0.03778076   -0.02542114      143.2268,-38,6.75,
21:50:25:87,246,26.0156,0.99998  1.1688e-05   0.0010152  -0.0065922,0.0005724     0.11635    -0.75542,-0.0018597   0.0098648   -0.011604,0.0022545 -0.00081015   0.0017405,-0.017502 -0.00064325      9.7891,0  0  0,24.78579      120.9973      143.2351,0.03918457   -0.02610779      143.2351,-35,6.5,
21:50:26:21,247,26.0156,0.99998  6.0983e-06   0.0010048  -0.0065847,-5.937e-05     0.11514    -0.75456,-0.002285    0.010658   -0.013756,0.0033455 -7.1466e-05 -0.00068569,-0.016281 -3.9935e-05      9.7891,0  0  0,24.78579      120.9973      143.2165,0.03967285   -0.02566528      143.2165,-34,6.25,
21:50:26:55,248,26.0156,0.99998 -2.0234e-05   0.0011142  -0.0067246,-0.0031772     0.12766    -0.77059,-0.0025978    0.011208   -0.014839,0.0084991   0.0029316   0.0010777,-0.013367   0.0024681      9.7891,0  0  0,24.78579      120.9973      143.1933,0.04046631    -0.0274353      143.1933,-36,6.25,
21:50:26:89,249,26.0156,0.99998  -2.235e-05   0.0010877  -0.0066993,-0.003396     0.12462    -0.76769,-0.0029163      0.0131   -0.017105,0.0078201   0.0055237   0.0025272,-0.013756    0.004982      9.7891,0  0  0,24.78579      120.9973      143.1757,0.04052734   -0.02947998      143.1757,-36,6.25,
21:50:27:24,250,26.0156,0.99998 -2.0899e-05   0.0010146  -0.0066316,-0.0031658     0.11624    -0.75993,-0.0021477    0.011024   -0.012459,0.0022011  0.00092649   0.0020866,-0.01767  0.00042605      9.7891,0  0  0,24.78579      120.9973      143.1504,0.04101563   -0.02867126      143.1504,-39,6.5,
21:50:27:58,251,26.0156,0.99998 -2.8918e-05  0.00099614  -0.0066075,-0.0040679     0.11413    -0.75717,-0.002182    0.010048   -0.012863,-0.00031638   0.0063896   0.0028172,-0.019806   0.0056953      9.7891,0  0  0,24.78579      120.9973      143.1453,0.03833008   -0.02766418      143.1453,-37,6.25,
21:50:27:92,252,26.0313,0.99998 -4.1503e-05   0.0010419  -0.0066661,-0.0055518     0.11936    -0.76389,-0.0024433    0.010445   -0.012665,0.0042038   0.0044556     0.01223,-0.01622   0.0035419      9.8047,0  0  0,24.78579      120.9973       143.147,0.03872681   -0.02810669       143.147,-38,7,
21:50:28:26,253,26.0313,0.99998 -3.9166e-05   0.0010516  -0.0067096,-0.0052965     0.12047    -0.76888,-0.00144   0.0093613   -0.011192,0.0014229   0.0035286   0.0014572,-0.019043   0.0027237      9.7891,0  0  0,24.78579      120.9973      143.1417,0.03881836    -0.0309906      143.1417,-37,6,
21:50:28:60,254,26.0313,0.99998 -5.6941e-05   0.0010453   -0.006769,-0.0073357     0.11974    -0.77569,-0.0030003    0.013763     -0.0177,-0.0016489   0.0029831   0.0045586,-0.022415   0.0016336      9.7969,0  0  0,24.78579      120.9973      143.1629,0.03967285   -0.03074646      143.1629,-40,6.25,
21:50:28:94,255,26.0313,0.99998 -5.2895e-05   0.0010474  -0.0068081,-0.0068784     0.11998    -0.78017,-0.0022793    0.014488   -0.016418,0.0067482   0.0030422    0.012108,-0.01416    0.001955      9.8047,0  0  0,24.78579      120.9973      143.1708,0.03921509   -0.03027344      143.1708,-36,5.75,
21:50:29:28,256,26.0313,0.99998 -6.1145e-05   0.0010306   -0.006828,-0.007813     0.11805    -0.78244,-0.0020885    0.013176   -0.015594,0.00025272   0.0060387   0.0058517,-0.020218   0.0047226      9.7969,0  0  0,24.78579      120.9973      143.1486,0.03588867   -0.02789307      143.1486,-39,6.75,
21:50:29:62,257,26.0313,0.99998 -3.7277e-05  0.00099177  -0.0068384,-0.0050487     0.11362    -0.78364,-0.0021839    0.012062   -0.015038,0.004467   -0.004509  -0.0025997,-0.014977  -0.0053024      9.7891,0  0  0,24.78579      120.9973      143.1411,0.0362854   -0.02871704      143.1411,-37,6.75,
21:50:29:96,258,26.0469,0.99998 -3.5096e-05  0.00098113  -0.0068693,-0.0047939      0.1124    -0.78718,-0.0026836    0.011322   -0.013405,0.010391   0.0099487   0.0053711,-0.0089874   0.0092239      9.7969,0  0  0,24.7858      120.9973       143.125,0.03713989   -0.02706909       143.125,-36,6.25,
21:50:30:30,259,26.0469,0.99998 -4.7794e-05  0.00095684  -0.0068494,-0.0062276     0.10961    -0.78489,-0.0029011    0.012177   -0.013962,0.0094604   0.0025082  0.00041771,-0.009407   0.0015116      9.7891,0  0  0,24.7858      120.9973      143.1275,0.03717041   -0.02514648      143.1275,-36,5.75,
21:50:30:64,260,26.0313,0.99998 -7.8473e-05  0.00099357  -0.0069854,-0.0097875     0.11379    -0.80048,-0.0023766    0.011215   -0.014107,0.0091248 -0.00041413   0.0060387,-0.010338  -0.0019703      9.7969,0  0  0,24.7858      120.9973      143.1402,0.03753662   -0.02279663      143.1402,-37,7,
21:50:30:98,261,26.0313,0.99997 -9.2048e-05  0.00096317  -0.0070301,-0.011324     0.11029    -0.80561,-0.0027294    0.011139   -0.014595,0.0033398   0.0045624  0.00074387,-0.015579   0.0026283      9.7891,0  0  0,24.7858      120.9973      143.1267,0.03781128   -0.02081299      143.1267,-36,6.25,
21:50:31:32,262,26.0313,0.99997 -9.1711e-05  0.00093925  -0.0070326,-0.011266     0.10755     -0.8059,-0.0022507    0.012901   -0.013863,0.0061951   -0.003437  -0.0079346,-0.012299  -0.0052719      9.7813,0  0  0,24.7858      120.9973      143.1149,0.03555298   -0.01815796      143.1149,-37,6.75,
21:50:31:66,263,26.0313,0.99997 -8.1319e-05  0.00089929  -0.0070308,-0.010043     0.10298    -0.80568,-0.0026455    0.011147   -0.016251,-0.018448    0.025604    0.011757,-0.036438    0.023575      9.7969,0  0  0,24.7858      120.9973      143.1209,0.03659058   -0.01794434      143.1209,-37,6.25,
21:50:32:00,264,26.0313,0.99997 -8.0397e-05  0.00093289  -0.0070784,-0.0099693     0.10683    -0.81114,-0.0027657    0.012009   -0.013275,0.011139   -0.011551  -0.0064697,-0.0070343   -0.013145      9.7813,0  0  0,24.7858      120.9973      143.1188,0.0378418   -0.01525879      143.1188,-37,6,
21:50:32:33,265,26.0313,0.99997 -0.00012801  0.00098588  -0.0072077,-0.015483     0.11287    -0.82597,-0.0028229    0.007988  -0.0082016,-0.010132     0.03418   0.0022297,-0.029602    0.031342      9.7891,0  0  0,24.7858      120.9973      143.0841,0.03771973   -0.01330566      143.0841,-37,6,
21:50:32:67,266,26,0.99997 -9.9227e-05  0.00094078   -0.007256,-0.012153     0.10772    -0.83149,-0.0012589   0.0064888   -0.011353,0.034698   0.0049477    0.017303,0.016647   0.0034714      9.8047,0  0  0,24.7858      120.9973      143.0428,0.03869629  -0.007263184      143.0428,-37,5.75,
21:50:33:01,267,26,0.99997 -0.00010938   0.0010129  -0.0074173,-0.013395     0.11597    -0.84999,-0.003582    0.011765   -0.016266,0.039246   -0.028671   0.0058784,0.01976   -0.030502      9.7969,0  0  0,24.7858      120.9973      143.0166,0.04116821  -0.009056091      143.0166,-37,6,
21:50:33:35,268,26,0.99997 -0.00012686   0.0010586  -0.0074591,-0.015441     0.12119    -0.85478,-0.0020123    0.010773   -0.013779,0.034973    0.067322    0.011177,0.013268    0.065186      9.7969,0  0  0,24.7858      120.9973      142.9899,0.04592896   -0.00592041      142.9899,-37,6.25,
21:50:33:69,269,25.9844,0.99997 -0.00010438   0.0010163  -0.0074977,-0.012834     0.11637    -0.85919,-0.0021095     0.01178   -0.013916,0.053925   -0.023438    0.010933,0.034302   -0.024811      9.7969,0  0  0,24.7858      120.9973      142.9382,0.05426025  -0.003818512      142.9382,-37,6,
21:50:34:03,270,25.9844,0.99997 -0.00013941    0.001044   -0.007643,-0.016889      0.1195    -0.87585,-0.0021954    0.011154   -0.014091,0.029449    0.021011   0.0096359,0.0086823    0.018585      9.7969,0  0  0,24.7858      120.9973      142.8688,0.05825806  -0.001620293      142.8688,-37,6,
21:50:34:37,271,25.9844,0.99997 -0.00014571   0.0010866  -0.0077718,-0.017664     0.12438    -0.89061,-0.0032845    0.012886     -0.0177,0.016083   0.0026073 -0.00043678,-0.005394 -0.00026131      9.7891,0  0  0,24.7858      120.9973        142.82,0.06234741  0.0004811287        142.82,-37,6.25,
21:50:34:71,272,25.9688,0.99997 -0.00015039   0.0011033  -0.0078453,-0.018224     0.12629    -0.89904,-0.0020866   0.0090408   -0.011612,0.015991   0.0017843   0.0019379,-0.0054245  -0.0010624      9.7891,0  0  0,24.7858      120.9973       142.765,0.065979   0.002189636       142.765,-37,6.5,
21:50:35:05,273,25.9688,0.99997 -0.00018502    0.001129  -0.0079475,-0.022229      0.1292    -0.91076,-0.0023384    0.011467    -0.01535,0.008873    0.016449   -0.005558,-0.013489    0.012787      9.7813,0  0  0,24.7858      120.9973      142.7166,0.0647583   0.005279541      142.7166,-37,6.75,
21:50:35:39,274,25.9688,0.99997 -0.00019359   0.0011417  -0.0080108,-0.023231     0.13065    -0.91801,-0.0037708    0.017929   -0.018692,0.018066  -0.0065613   0.0062561,-0.004837   -0.010391      9.7969,0  0  0,24.7858      120.9973      142.6834,0.06732178   0.007965088      142.6834,-37,6,
21:50:35:74,275,25.9844,0.99997 -0.00018955   0.0011146  -0.0080271,-0.022745     0.12754    -0.91987,-0.0022087    0.011154   -0.014702,0.028549   0.0020218   0.0073242,0.0066948  -0.0014048      9.7969,0  0  0,24.7858      120.9973      142.6878,0.07000732   0.009307861      142.6878,-37,6.5,
21:50:36:08,276,25.9844,0.99997 -0.00020489   0.0011135  -0.0081296,-0.024516      0.1274    -0.93162,-0.0013103   0.0086212  -0.0096436,0.016541    0.011917   0.0064888,-0.0051918   0.0080872      9.7969,0  0  0,24.7858      120.9973      142.6923,0.06768799   0.008361816      142.6923,-37,6,
21:50:36:42,277,25.9844,0.99997 -0.00022729   0.0011306  -0.0081907,-0.027106     0.12934    -0.93863,-0.0022202    0.010963    -0.01313,0.0097504   0.0017653      0.0028,-0.012375  -0.0027046      9.7891,0  0  0,24.7858      120.9973       142.727,0.07006836    0.00970459       142.727,-38,6.5,
21:50:36:76,278,26,0.99997 -0.00021869   0.0011257  -0.0082815,-0.026127     0.12878    -0.94903,-0.0022144    0.011841   -0.014709,0.024811  -0.0038509   0.0027504,0.0027885  -0.0078964      9.7891,0  0  0,24.7858      120.9973      142.7719,0.07232666   0.007282257      142.7719,-37,6,
21:50:37:10,279,26,0.99996 -0.00020185    0.001113   -0.008386,-0.024199     0.12734      -0.961,-0.0022602   0.0083008   -0.011436,0.016098   0.0088501 -0.00061417,-0.0055428    0.004982      9.7891,0  0  0,24.7858      120.9973      142.8273,0.07397461   0.006664276      142.8273,-38,7,
21:50:37:44,280,26,0.99996 -0.00017584   0.0011567  -0.0084327,-0.021267     0.13238    -0.96635,-0.0028343    0.012268   -0.014175,0.00025511   -0.015312   0.0012512,-0.022217   -0.018997      9.7891,0  0  0,24.7858      120.9973      142.8731,0.0770874   0.006706238      142.8731,-38,6.75,
21:50:37:78,281,25.9688,0.99996 -0.00018048   0.0011094  -0.0085022,-0.021762     0.12695    -0.97431,-0.0027561    0.012505   -0.015144,0.014618    0.028412  -0.0017166,-0.0076904    0.024887      9.7891,0  0  0,24.7858      120.9973      142.9236,0.07910156   0.005096436      142.9236,-38,6.75,
21:50:38:12,282,25.9688,0.99996 -0.00018783    0.001117  -0.0085867,-0.022623     0.12781      -0.984,-0.0024624    0.010971   -0.014336,0.014786   0.0012617 -0.00040817,-0.0070686  -0.0023689      9.7891,0  0  0,24.7858      120.9973      142.9836,0.08123779   0.005638123      142.9836,-38,6.5,
21:50:38:46,283,25.9688,0.99996 -0.00019183    0.001121  -0.0086351,-0.023091     0.12826    -0.98954,-0.0015516   0.0093307    -0.01033,0.018402   0.0071716  0.00094604,-0.0034714   0.0036106      9.7891,0  0  0,24.7858      120.9973      143.0185,0.08294678   0.005653381      143.0185,-38,6.5,
21:50:38:80,284,26,0.99996 -0.00021551   0.0011538  -0.0088056,-0.025859     0.13199     -1.0091,-0.0022793   0.0095673   -0.012825,0.024231  -0.0035839   0.0095749,0.0018625  -0.0075798      9.7969,0  0  0,24.7858      120.9973      143.0134,0.08154297   0.004459381      143.0134,-37,7,
21:50:39:14,285,26,0.99996 -0.00024331   0.0011882  -0.0088538,-0.029085     0.13591     -1.0146,-0.0030575    0.012436   -0.016098,0.0074272    0.017151   0.0012865,-0.016235     0.01223      9.7891,0  0  0,24.7858      120.9973      143.0041,0.0836792   0.005462646      143.0041,-37,6,
21:50:39:48,286,26,0.99996 -0.00023161   0.0011444  -0.0088762,-0.027704      0.1309     -1.0172,-0.0028191    0.012779   -0.016464,0.006916    0.016296   0.0053902,-0.015915    0.011627      9.7969,0  0  0,24.7858      120.9973      143.0184,0.08496094   0.005050659      143.0184,-38,6.75,
21:50:39:82,287,26,0.99996 -0.00020339   0.0011456  -0.0089483,-0.024481     0.13106     -1.0254,-0.0016766    0.011932    -0.01561,0.012047  -0.0061684   -0.005394,-0.010307   -0.010071      9.7813,0  0  0,24.7858      120.9973      143.0439,0.08392334   0.004436493      143.0439,-37,6.75,
21:50:40:16,288,26,0.99996 -0.00022793    0.001135  -0.0090169,-0.027291     0.12982     -1.0333,-0.0023937    0.012184   -0.015411,0.012474   0.0055237    0.011543,-0.0099411   0.0010672      9.7969,0  0  0,24.7858      120.9973       143.139,0.08270264   0.004478455       143.139,-37,6.25,
21:50:40:50,289,25.9844,0.99996 -0.00022508   0.0011243  -0.0090128,-0.026952      0.1286     -1.0328,-0.0017719   0.0085526   -0.010674,0.010414    0.010132  0.00053787,-0.01149    0.005764      9.7891,0  0  0,24.7858      120.9973       143.217,0.08374023   0.006710052       143.217,-37,6.75,
21:50:40:83,290,25.9844,0.99996 -0.00024199   0.0011593  -0.0091478,-0.028944     0.13258     -1.0483,-0.002285    0.010483   -0.012802,0.0066986   0.0028572   0.0042801,-0.015961  -0.0019703      9.7969,0  0  0,24.7858      120.9973      143.2808,0.08465576   0.004673004      143.2808,-38,6.5,
21:50:41:17,291,25.9844,0.99996 -0.00024955   0.0011461  -0.0091364,-0.029795     0.13107      -1.047,-0.0022507    0.011826   -0.014236,0.022385  -0.0018282    0.003952,-6.8665e-05  -0.0065117      9.7891,0  0  0,24.7858      120.9973      143.3266,0.08428955   0.006622314      143.3266,-38,6.75,
21:50:41:51,292,25.9844,0.99996 -0.00023083   0.0011226  -0.0091765,-0.02763      0.1284     -1.0516,-0.0032005    0.013634   -0.016068,0.0066414  -0.0018778  -0.0011787,-0.015511  -0.0065689      9.7891,0  0  0,24.7858      120.9973      143.3697,0.08392334   0.005462646      143.3697,-38,6.75,
21:50:41:85,293,25.9844,0.99996 -0.00025895   0.0011111   -0.009185,-0.030842     0.12705     -1.0526,-0.002636    0.011192   -0.014404,0.02037    0.011429  -0.0073051,-0.001543   0.0064964      9.7813,0  0  0,24.7858      120.9973      143.3994,0.08288574   0.007164001      143.3994,-37,6.5,
21:50:42:20,294,25.9844,0.99996 -0.00026547    0.001116  -0.0092181,-0.031598     0.12759     -1.0564,-0.0024185   0.0099335   -0.011993,0.0093994    0.010078   0.0024471,-0.012482   0.0048332      9.7891,0  0  0,24.7858      120.9973       143.433,0.08184814    0.00919342       143.433,-37,7,
21:50:42:54,295,25.9844,0.99996 -0.00027577   0.0011316  -0.0092148,-0.032795     0.12937      -1.056,-0.0015783   0.0098648   -0.011345,0.024033     0.01107  -0.0079269,0.001852   0.0059814      9.7813,0  0  0,24.7858      120.9973      143.4444,0.08221436    0.01087189      143.4444,-37,6.5,
21:50:42:88,296,25.9844,0.99996 -0.00027237   0.0011127  -0.0093045,-0.032397     0.12721     -1.0663,-0.0028801    0.012474   -0.015793,0.040192   0.0039406   0.0078354,0.018219 -0.00091076      9.7969,0  0  0,24.7858      120.9973      143.4683,0.08612061    0.01410675      143.4683,-37,6.5,
21:50:43:22,297,25.9844,0.99996 -0.00025457   0.0010993  -0.0092852,-0.03034      0.1257      -1.064,-0.0029755    0.014046   -0.016663,0.013969    0.021011 -9.8228e-05,-0.0081863    0.016006      9.7891,0  0  0,24.7858      120.9973      143.4792,0.08905029    0.01544189      143.4792,-36,6.5,
21:50:43:56,298,25.9688,0.99996 -0.00024641   0.0010843  -0.0092986,-0.029391     0.12399     -1.0656,-0.0026035    0.014061   -0.016449,0.027664  -0.0060196  -0.0025692,0.0063057   -0.010559      9.7891,0  0  0,24.7858      120.9973      143.4677,0.08551025    0.01747131      143.4677,-37,6,
21:50:43:90,299,25.9688,0.99996 -0.00026513     0.00107  -0.0093186,-0.031523     0.12232     -1.0679,-0.0018263    0.012794   -0.014275,0.036285    0.019775   0.0037746,0.014832    0.015114      9.7891,0  0  0,24.7858      120.9973      143.4531,0.08898926    0.02284241      143.4531,-37,6.25,
21:50:44:24,300,25.9688,0.99996 -0.00025028   0.0010409  -0.0093608,-0.029795       0.119     -1.0727,-0.0020638   0.0084763   -0.010353,0.0082016  -0.0084457   0.0032845,-0.011719   -0.013359      9.7891,0  0  0,24.7858      120.9973      143.4036,0.08837891    0.02046204      143.4036,-37,6.25,
21:50:44:58,301,25.9688,0.99995 -0.00023375   0.0010832  -0.0094755,-0.02796     0.12386     -1.0859,-0.0018539   0.0091858   -0.010643,0.0010071    0.009079  -0.0029774,-0.020142    0.004364      9.7891,0  0  0,24.7858      120.9973      143.3649,0.08880615    0.01670837      143.3649,-37,6.75,
21:50:44:92,302,25.9688,0.99995 -0.00023201   0.0010744  -0.0095174,-0.027758     0.12286     -1.0907,-0.0033627    0.014999   -0.018234,0.015587   0.0015306   -0.003212,-0.0058136  -0.0030212      9.7891,0  0  0,24.7858      120.9973      143.3183,0.09240723    0.01828003      143.3183,-37,6.25,
21:50:45:26,303,25.9688,0.99995 -0.00024459   0.0010483  -0.0095536,-0.029174     0.11985     -1.0948,-0.0027161    0.010735   -0.014046,0.0215   0.0039597   0.0082245,0.00096512 -0.00066137      9.7969,0  0  0,24.7858      120.9973      143.2476,0.09002686    0.02023315      143.2476,-37,7,
21:50:45:60,304,25.9375,0.99995 -0.00024905   0.0010463  -0.0096052,-0.029689     0.11962     -1.1007,-0.0026951     0.01355   -0.015144,0.024216    0.011124   0.0084152,0.0032978   0.0064659      9.7969,0  0  0,24.7858      120.9973      143.1689,0.09423828    0.02519226      143.1689,-37,7,
21:50:45:94,305,25.9375,0.99995 -0.00029982   0.0011083  -0.0097406,-0.035593     0.12666     -1.1163,-0.0020409    0.010193   -0.011688,0.02774   0.0098724    0.011856,0.00597   0.0043449      9.8047,0  0  0,24.7858      120.9973       143.101,0.09753418    0.03210449       143.101,-38,6.75,
21:50:46:28,306,25.9375,0.99995 -0.00030203   0.0010376  -0.0096881,-0.035761     0.11856     -1.1102,-0.0019665    0.010742   -0.010567,0.040314  -0.0078812    0.009346,0.020233   -0.013191      9.7969,0  0  0,24.7858      120.9973      143.0272,0.1004028    0.03671265      143.0272,-37,6.75,
21:50:46:62,307,25.8906,0.99995 -0.00031512   0.0010403  -0.0097774,-0.037274     0.11885     -1.1205,-0.0020428      0.0121   -0.013062,0.049133    0.045288   0.0053482,0.027832    0.039886      9.7969,0  0  0,24.7858      120.9973      142.9371,0.1079102    0.04122925      142.9371,-37,6.5,
21:50:46:96,308,25.8906,0.99995 -0.00029921   0.0010744  -0.0098574,-0.035499     0.12277     -1.1296,-0.0028286    0.013535   -0.016403,0.026077  -0.0088501  -0.0013828,0.0050354    -0.01445      9.7891,0  0  0,24.7858      120.9973      142.8514,0.1122437    0.03985596      142.8514,-38,6.75,
21:50:47:30,309,25.8906,0.99995 -0.00030561   0.0010206  -0.0099575,-0.036183      0.1166     -1.1411,-0.0026417    0.013016   -0.016144,0.052521   0.0091095     0.01445,0.032196   0.0039291      9.8047,0  0  0,24.7858      120.9973      142.7582,0.1165161    0.04360962      142.7582,-38,6.75,
21:50:47:64,310,25.8438,0.99995 -0.00032251   0.0010266  -0.0099707,-0.038128     0.11726     -1.1426,-0.0022278   0.0092545    -0.01088,0.037506    0.013092   0.0036049,0.017365   0.0073204      9.7891,0  0  0,24.7858      120.9973      142.6963,0.1245728    0.04653931      142.6963,-37,7,
21:50:47:98,311,25.8438,0.99995  -0.0003101   0.0010514   -0.010036,-0.036742     0.12012     -1.1501,-0.0013247   0.0086975   -0.011505,0.017548    0.015312   0.0022373,-0.0030613   0.0094757      9.7891,0  0  0,24.7858      120.9973      142.6553,0.1282959    0.04724121      142.6553,-38,6.75,
21:50:48:32,312,25.8438,0.99995  -0.0002814   0.0010838   -0.010179,-0.033509     0.12386     -1.1665,-0.0021935    0.010223   -0.013222,0.028732     0.01487  -0.0068817,0.0073624   0.0097351      9.7813,0  0  0,24.7858      120.9973      142.5844,0.1345215     0.0395813      142.5844,-38,7,
21:50:48:66,313,25.8438,0.99995 -0.00025699    0.001092   -0.010234,-0.030729     0.12483     -1.1728,-0.0021286   0.0077896   -0.013496,0.032532    0.034637    0.016098,0.010773    0.030045      9.8047,0  0  0,24.7858      120.9973      142.5271,0.1439209    0.03936768      142.5271,-38,6.5,
21:50:49:00,314,25.8438,0.99995 -0.00025448   0.0010425   -0.010305,-0.030391     0.11915     -1.1809,-0.0021152    0.012009   -0.015671,0.050995  -0.0065422  -0.0050316,0.030701   -0.010666      9.7813,0  0  0,24.7858      120.9973      142.4545,0.1483154    0.03872681      142.4545,-37,5.75,
21:50:49:33,315,25.8438,0.99995 -0.00028448   0.0010535   -0.010397,-0.033853     0.12037     -1.1915,-0.0024986    0.010284   -0.013145,0.037384   0.0071106  -0.0033722,0.016754   0.0020828      9.7891,0  0  0,24.7858      120.9973      142.4215,0.1437988    0.03933716      142.4215,-37,6,
21:50:49:67,316,25.8281,0.99994 -0.00030041   0.0010386   -0.010448,-0.035667     0.11865     -1.1974,-0.0030746    0.014641   -0.018631,0.031525    0.011757 -0.00087833,0.010658   0.0062447      9.7891,0  0  0,24.7858      120.9973      142.3849,0.1525879    0.04046631      142.3849,-37,6.5,
21:50:50:01,317,25.8281,0.99994 -0.00029556  0.00098091   -0.010553,-0.035053     0.11204     -1.2094,-0.0020313     0.01136   -0.013817,0.039001   0.0011034   0.0055084,0.019806  -0.0040436      9.7969,0  0  0,24.7858      120.9973      142.3537,0.1530762    0.04342651      142.3537,-38,7,
21:50:50:35,318,25.8281,0.99994 -0.00031016   0.0010021    -0.01057,-0.036753     0.11446     -1.2113,-0.0027847    0.012566   -0.016617,0.02919  0.00077772    0.007328,0.0094604    -0.00494      9.7969,0  0  0,24.7858      120.9973      142.3035,0.1583252    0.04608154      142.3035,-38,6.75,
21:50:50:70,319,25.7813,0.99994 -0.00030841  0.00098163    -0.01064,-0.036536      0.1121     -1.2193,-0.0016479   0.0095062   -0.011292,0.033356    0.013176   0.0025959,0.014069   0.0077019      9.7891,0  0  0,24.7858      120.9973      142.2334,0.1582031     0.0446167      142.2334,-37,7,
21:50:51:04,320,25.7813,0.99994 -0.00029499  0.00084604    -0.01064,-0.034833    0.096584     -1.2193,-0.0021496   0.0086899   -0.011833,0.019943    0.018005   0.0015335,0.0032997    0.012489      9.7891,0  0  0,24.7858      120.9973      142.1765,0.1474609    0.04373169      142.1765,-38,6.5,
21:50:51:38,321,25.7813,0.99994 -0.00029126  0.00087801   -0.010724,-0.034453     0.10025     -1.2289,-0.0017328   0.0097351   -0.012138,0.027481   0.0090332   0.0093384,0.010277   0.0037842      9.7969,0  0  0,24.7858      120.9973      142.0868,0.1501465    0.04400635      142.0868,-38,6.5,
21:50:51:72,322,25.7813,0.99994 -0.00030995  0.00090531    -0.01087,-0.036643     0.10335     -1.2457,-0.0026627    0.012283   -0.015305,0.025894   0.0071907   0.0022678,0.0079575   0.0014534      9.7891,0  0  0,24.7858      120.9973      141.9746,0.1561279    0.04666138      141.9746,-38,6,
21:50:52:06,323,25.7813,0.99994 -0.00031484  0.00087238   -0.010982,-0.037174    0.099565     -1.2585,-0.0025349    0.013245   -0.017044,0.034698    0.018661   0.0067139,0.017044    0.013046      9.7969,0  0  0,24.7858      120.9973      141.9225,0.1558838    0.04879761      141.9225,-37,6.75,
21:50:52:40,324,25.75,0.99994 -0.00032092   0.0008691   -0.010996,-0.037868    0.099182     -1.2601,-0.00214    0.012886   -0.014595,0.030914    0.013565    0.011169,0.013474    0.007782      9.7969,0  0  0,24.7858      120.9973      141.8598,0.1617432    0.04977417      141.8598,-37,6.75,
21:50:52:74,325,25.75,0.99994 -0.00030215  0.00086313   -0.011064,-0.035717    0.098518     -1.2679,-0.0020618   0.0087128    -0.01133,0.045563   0.0018129    0.012222,0.0289  -0.0032673      9.8047,0  0  0,24.7858      120.9973      141.7684,0.1671143    0.05197144      141.7684,-38,6.5,
21:50:53:08,326,25.75,0.99994 -0.00030024  0.00091459   -0.011226,-0.035579     0.10441     -1.2865,-0.0021648    0.010002    -0.01342,0.018463   0.0042725    0.010597,0.00061798  -0.0013895      9.7969,0  0  0,24.7858      120.9973      141.7217,0.1650391     0.0512085      141.7217,-38,7.25,
21:50:53:42,327,25.7344,0.99994 -0.00028536  0.00089377   -0.011262,-0.033852     0.10204     -1.2905,-0.0015583    0.011742   -0.015587,0.032196   0.0060806   0.0049171,0.014549   0.0010891      9.7969,0  0  0,24.7858      120.9973      141.6878,0.1689453    0.05395508      141.6878,-38,6.5,
21:50:53:76,328,25.7344,0.99994 -0.00026325   0.0008398   -0.011278,-0.03125    0.095888     -1.2924,-0.0029526    0.012466   -0.015297,0.027466    0.012794   0.0061073,0.010643   0.0079956      9.7969,0  0  0,24.7858      120.9973         141.7,0.1636963    0.05224609         141.7,-37,6.25,
21:50:54:10,329,25.7344,0.99993 -0.00026745  0.00084067   -0.011418,-0.031746    0.095978     -1.3085,-0.0026226    0.010231   -0.011673,0.032074   0.0089569  0.00086021,0.015549   0.0042305      9.7891,0  0  0,24.7858      120.9973      141.7394,0.1660156    0.05496216      141.7394,-38,7,
21:50:54:44,330,25.7344,0.99993 -0.00027991  0.00087438    -0.01152,-0.033228     0.09982     -1.3202,-0.0028801    0.013031   -0.016464,0.022781   0.0089874  -0.0062218,0.0053406   0.0037785      9.7813,0  0  0,24.7858      120.9973      141.7679,0.1680908    0.05664063      141.7679,-38,7,
21:50:54:78,331,25.7344,0.99993 -0.00027676  0.00082863   -0.011593,-0.032813     0.09458     -1.3285,-0.0026455    0.011948   -0.015175,0.026672    0.014236   0.0077286,0.010078    0.009201      9.7969,0  0  0,24.7858      120.9973      141.8322,0.1624756    0.05804443      141.8322,-38,6.5,
21:50:55:12,332,25.7344,0.99993  -0.0002461  0.00079711   -0.011616,-0.02926    0.091008     -1.3311,-0.0029106    0.013954   -0.016861,0.015007    0.010086  -0.0034409,-0.0010509   0.0053711      9.7891,0  0  0,24.7858      120.9973      141.9104,0.1611328    0.05456543      141.9104,-37,7,
21:50:55:46,333,25.7344,0.99993 -0.00023109  0.00076474   -0.011657,-0.0275    0.087318     -1.3358,-0.0022907   0.0098877   -0.013062,0.014702     0.00914   0.0014114,-0.00031471   0.0047836      9.7891,0  0  0,24.7858      120.9973      142.0055,0.1591797    0.05358887      142.0055,-38,6.75,
21:50:55:80,334,25.7344,0.99993 -0.00019701  0.00072335   -0.011685,-0.023543     0.08262     -1.3391,-0.0017166    0.009697   -0.010635,0.013062   0.0039864   0.0050087,-0.0010157  0.00032306      9.7969,0  0  0,24.7858      120.9973      142.1115,0.1533203    0.04742432      142.1115,-38,6.75,
21:50:56:14,335,25.7344,0.99993  -0.0001878  0.00071146   -0.011786,-0.022479    0.081268     -1.3506,-0.0021324    0.011795   -0.013359,0.0055962  -9.042e-05   0.0033016,-0.0083542  -0.0037842      9.7891,0  0  0,24.7858      120.9973      142.2062,0.1513672    0.04522705      142.2062,-38,6.75,
21:50:56:48,336,25.7344,0.99993 -0.00016837  0.00068755    -0.01182,-0.020224    0.078554     -1.3545,-0.0030861    0.013046    -0.01767,0.0057945   0.0019913   -0.001935,-0.0078583  -0.0014048      9.7891,0  0  0,24.7858      120.9973       142.324,0.1481934    0.04382324       142.324,-38,7,
21:50:56:82,337,25.7344,0.99993 -0.00015318  0.00066505   -0.011925,-0.018461    0.075994     -1.3665,-0.0026112    0.011169   -0.013733,0.012466   0.0061493   0.0015268,-0.00066566   0.0032597      9.7891,0  0  0,24.7858      120.9973      142.4028,0.140625    0.03826904      142.4028,-38,7,
21:50:57:16,338,25.7344,0.99993 -0.00012328  0.00062981   -0.011978,-0.01499    0.071997     -1.3726,-0.0035915    0.014618   -0.017471,0.0054359   0.0057068   0.0055656,-0.0073471   0.0031471      9.7969,0  0  0,24.7858      120.9973      142.4949,0.1376953    0.03579712      142.4949,-37,6.5,
21:50:57:50,339,25.7656,0.99993 -9.6822e-05  0.00062894   -0.012041,-0.011962    0.071933     -1.3798,-0.0017538    0.010231   -0.012901,0.010994   0.0037498    0.002758,-0.0013046   0.0020218      9.7891,0  0  0,24.7858      120.9973        142.54,0.1352539    0.03305054        142.54,-37,7,
21:50:57:83,340,25.7656,0.99993 -6.8951e-05  0.00063285    -0.01217,-0.0087832    0.072417     -1.3946,-0.0021515    0.013123   -0.016449,0.0074654   0.0097046   0.0008049,-0.0053368      0.0084      9.7891,0  0  0,24.7858      120.9973      142.5831,0.1289063    0.02752686      142.5831,-37,6.75,
21:50:58:17,341,25.7656,0.99993   -6.13e-05  0.00059138   -0.012186,-0.0078497    0.067676     -1.3965,-0.0030079    0.012405   -0.015022,0.0018549    0.012589   0.0029125,-0.010139    0.011215      9.7891,0  0  0,24.7858      120.9973      142.6384,0.1247559    0.02532959      142.6384,-37,7.25,
21:50:58:51,342,25.7813,0.99993 -1.1927e-05  0.00055862   -0.012153,-0.0021445    0.063992     -1.3927,-0.0021973    0.010841   -0.013214,0.0037384   0.0058365  -0.0012436,-0.0073013   0.0055695      9.7891,0  0  0,24.7858      120.9973       142.651,0.1160889     0.0193634       142.651,-37,6.25,
21:50:58:85,343,25.7813,0.99993   4.191e-07  0.00052342   -0.012173,-0.0006821    0.059975     -1.3949,-0.0016174    0.009285   -0.010941,0.0046082   0.0018101   0.0026951,-0.0055008   0.0018721      9.7891,0  0  0,24.7858      120.9973      142.6618,0.1124268    0.01734924      142.6618,-37,6.75,
21:50:59:20,344,25.7813,0.99992  9.7565e-06  0.00056004   -0.012278,0.00033001    0.064185     -1.4069,-0.0021439    0.010529   -0.012733,-0.0042725    0.012276   0.0014629,-0.015472    0.012238      9.7891,0  0  0,24.7858      120.9973      142.6573,0.1085815    0.01558685      142.6573,-36,6.75,
21:50:59:54,345,25.7969,0.99992  1.6373e-05  0.00055808    -0.01239,0.0010837     0.06397     -1.4199,-0.0026398    0.012871   -0.016235,0.006897  -0.0047722   0.0020504,-0.0040817  -0.0044479      9.7891,0  0  0,24.7858      120.9973      142.6406,0.09460449     0.0136261      142.6406,-37,6.5,
21:50:59:88,346,25.7969,0.99992  1.7334e-05   0.0004728   -0.012439,0.0013122      0.0542     -1.4254,-0.0025539    0.011971   -0.015884,0.0024529    0.002882    0.004673,-0.0069618   0.0031414      9.7969,0  0  0,24.7858      120.9973      142.6444,0.08557129    0.01387024      142.6444,-37,6.5,
21:51:00:22,347,25.7969,0.99992  1.5922e-05  0.00044817   -0.012431,0.0011859    0.051376     -1.4246,-0.0019836   0.0093765  -0.0097427,-0.0020618  -0.0022774  -0.0025387,-0.010605  -0.0020943      9.7891,0  0  0,24.7858      120.9973      142.6635,0.08178711    0.01353455      142.6635,-37,6.5,
21:51:00:56,348,25.7813,0.99992  2.5084e-05  0.00041151   -0.012538,0.002283    0.047188     -1.4368,-0.0017748   0.0088501   -0.010742,0.014397 -0.00073004   0.0012426,0.0065765  7.2479e-05      9.7891,0  0  0,24.7858      120.9973      142.6779,0.07232666    0.01396179      142.6779,-36,6.5,
21:51:00:90,349,25.7813,0.99992  2.8871e-06  0.00038353   -0.012556,-0.00022104    0.043951     -1.4389,-0.0023823   0.0088654    -0.01368,0.021622  -0.0082703  -0.0043221,0.014534  -0.0077705      9.7813,0  0  0,24.7858      120.9973      142.7072,0.0690918     0.0140686      142.7072,-37,6.5,
21:51:01:24,350,25.7813,0.99992 -7.2308e-06  0.00036932   -0.012495,-0.0013573    0.042307     -1.4319,-0.0028    0.012985   -0.016174,0.022247    0.018524    0.015541,0.014359    0.018799      9.8047,0  0  0,24.7858      120.9973      142.7607,0.06744385    0.01454926      142.7607,-37,6.75,
21:51:01:58,351,25.7656,0.99992 -2.6872e-05   0.0004203   -0.012578,-0.0036849     0.04812     -1.4413,-0.0026455    0.014877   -0.015015,-0.012383   -0.030106   -0.012238,-0.020187   -0.031067      9.7734,0  0  0,24.7858      120.9973      142.8063,0.06286621    0.01537323      142.8063,-38,7,
21:51:01:92,352,25.7656,0.99992 -2.8258e-05  0.00033035   -0.012539,-0.0037126    0.037812      -1.437,-0.0020313   0.0067329   -0.011353,0.0016346    0.012627   0.0028057,-0.0047073    0.012054      9.7891,0  0  0,24.7858      120.9973      142.9157,0.0647583    0.01763916      142.9157,-38,6.5,
21:51:02:26,353,25.7188,0.99992  -2.466e-05  0.00028395   -0.012538,-0.0032335      0.0325     -1.4368,-0.001873    0.011192   -0.012177,0.0029106  0.00050259   -0.014023,-0.0026474  6.5267e-05      9.7734,0  0  0,24.7858      120.9973      143.0394,0.0625    0.02122498      143.0394,-38,6.5,
21:51:02:60,354,25.7188,0.99992 -3.8253e-05  0.00033614   -0.012682,-0.0048716     0.03846     -1.4532,-0.0025806    0.013657   -0.017227,0.050354   0.0076523  -0.0027981,0.043335   0.0080719      9.7891,0  0  0,24.7858      120.9973      143.1529,0.0645752     0.0211792      143.1529,-38,6.5,
21:51:02:94,355,25.7188,0.99992 -2.6919e-05  0.00032176   -0.012779,-0.0035556    0.036829     -1.4644,-0.0021877    0.012123   -0.014359,-0.0035477   -0.012703   0.0033493,-0.0096054    -0.01339      9.7891,0  0  0,24.7858      120.9973      143.2731,0.06634521    0.02308655      143.2731,-38,7,
21:51:03:28,356,25.7031,0.99992 -1.8615e-05  0.00022832   -0.012783,-0.0024674    0.026135     -1.4649,-0.0027905    0.009201   -0.011864,0.024017   0.0023193   0.0095825,0.019669   0.0024624      9.7969,0  0  0,24.7858      120.9973      143.3513,0.06463623     0.0246582      143.3513,-38,6.75,
21:51:03:62,357,25.7031,0.99992 -6.7949e-06  0.00025528   -0.012951,-0.0011574    0.029241     -1.4841,-0.0017786   0.0083389   -0.012993,0.031555  -0.0023613   0.0086594,0.026901   -0.001689      9.7969,0  0  0,24.7858      120.9973      143.4557,0.06665039    0.02520752      143.4557,-39,6.75,
21:51:03:96,358,25.7031,0.99992 -8.1789e-06   0.0001968   -0.012916,-0.0012284    0.022538     -1.4801,-0.0013819   0.0077667   -0.010452,0.011932    0.011635    0.020081,0.00811    0.011818      9.8125,0  0  0,24.7858      120.9973      143.5626,0.06707764     0.0239563      143.5626,-38,6.75,
21:51:04:30,359,25.7031,0.99991   1.326e-05   0.0002646   -0.013069,0.0011231    0.030338     -1.4977,-0.0031643    0.013588   -0.017761,0.034088   0.0025845  -0.0073013,0.02861   0.0035839      9.7813,0  0  0,24.7858      120.9973      143.6187,0.06500244    0.01951599      143.6187,-37,6.75,
21:51:04:64,360,25.7031,0.99992  3.5541e-05  0.00024451   -0.013004,0.003708    0.028069     -1.4902,-0.0017834     0.01236   -0.014107,0.030975  -0.0028324    0.020813,0.026123  -0.0013399      9.8125,0  0  0,24.7858      120.9973      143.7038,0.06604004    0.01951599      143.7038,-38,7,
21:51:04:98,361,25.7031,0.99992  2.8141e-05  0.00022797   -0.012954,0.002886    0.026162     -1.4845,-0.0029869    0.011497   -0.014397,0.020615    -0.01799   0.0072365,0.016586   -0.017014      9.7969,0  0  0,24.7858      120.9973      143.8054,0.06768799    0.01669312      143.8054,-38,7,
21:51:05:32,362,25.7031,0.99991 -2.1718e-06  0.00015165   -0.013069,-0.00047597    0.017374     -1.4976,-0.0019741   0.0075722   -0.013275,0.017731    0.013359    0.021866,0.014755    0.013771      9.8125,0  0  0,24.7858      120.9973      143.8477,0.06311035    0.01911926      143.8477,-38,7,
21:51:05:66,363,25.7031,0.99991  7.4077e-06  0.00021035   -0.013089,0.00053328    0.024114     -1.4999,-0.0031834    0.016663   -0.017487,-0.030502   0.0077019   0.0086136,-0.03537   0.0069046      9.7969,0  0  0,24.7858      120.9973      143.8796,0.06408691    0.01957703      143.8796,-38,6.5,
21:51:06:00,364,25.7031,0.99991  2.0338e-05  8.4258e-05   -0.013152,0.0022034    0.009685     -1.5071,-0.002346    0.010216   -0.014626,0.0034351    0.020432   0.0013723,0.0013399    0.020874      9.7891,0  0  0,24.7858      120.9973      143.8863,0.06298828    0.01858521      143.8863,-38,6.5,
21:51:06:33,365,25.7031,0.99991   4.972e-05  0.00011866   -0.013196,0.0055175    0.013671     -1.5121,-0.0020046    0.010277   -0.011696,0.007473   0.0031509  -0.0020504,0.005146   0.0043182      9.7891,0  0  0,24.7858      120.9973      143.8276,0.06195068    0.01520538      143.8276,-38,6.5,
21:51:06:67,366,25.7031,0.99991  6.2143e-05  0.00013524   -0.013374,0.0069132    0.015591     -1.5326,-0.0025005    0.013451   -0.016022,0.0041733   -0.011536  -0.0032196,0.0016003   -0.010262      9.7891,0  0  0,24.7858      120.9973      143.7445,0.06323242    0.01511383      143.7445,-38,6.75,
21:51:07:01,367,25.7031,0.99991  6.2983e-05  0.00011292   -0.013516,0.0070418    0.013036     -1.5489,-0.0035629    0.015457   -0.019272,0.0063286  0.00084162   0.0083771,0.0036602   0.0020924      9.7969,0  0  0,24.7858      120.9973      143.6237,0.06018066    0.01570129      143.6237,-38,6.5,
21:51:07:35,368,25.7031,0.99991  6.6487e-05   7.771e-05    -0.01362,0.0074969   0.0090079     -1.5607,-0.0016241    0.010048   -0.012894,0.0028191  -0.0045662 -0.00081825,0.0015192  -0.0031395      9.7891,0  0  0,24.7858      120.9973      143.4339,0.05892944    0.02093506      143.4339,-38,6.75,
21:51:07:69,369,25.7031,0.9999  2.8318e-05  0.00016526   -0.013881,0.0029818    0.018981     -1.5907,-0.0024471    0.011734    -0.01474,3.9101e-05    0.015427  -0.0040283,-0.0036831    0.015915      9.7813,0  0  0,24.7858      120.9973      143.1973,0.05841064    0.02189636      143.1973,-38,6.75,
21:51:08:04,370,25.7031,0.9999  6.6722e-05  0.00017412   -0.014202,0.0073616    0.020059     -1.6275,-0.0026455    0.010368   -0.013184,0.018631   -0.010025  -0.0036221,0.015564  -0.0082626      9.7891,0  0  0,24.7858      120.9973      142.9793,0.05773926    0.01355743      142.9793,-38,6.25,
21:51:08:38,371,25.6875,0.9999  7.2446e-05  0.00015955    -0.01432,0.008039      0.0184      -1.641,-0.0028782    0.012054   -0.014175,0.011139  -0.0018415  -0.0011749,0.0079651 -0.00020468      9.7891,0  0  0,24.7858      120.9973      142.6734,0.06231689    0.01026154      142.6734,-38,7,
21:51:08:72,372,25.6875,0.9999  0.00011281  0.00020368   -0.014478,0.012588    0.023525     -1.6592,-0.0012341    0.013527   -0.012924,0.018082     0.01683   0.0067215,0.013336    0.019608      9.7969,0  0  0,24.7858      120.9973      142.3555,0.06762695   0.009277344      142.3555,-38,6.75,
21:51:09:06,373,25.6875,0.99989  5.6945e-05   0.0001946   -0.014768,0.0061954    0.022393     -1.6923,-0.0012293  -0.0047531   -0.011253,-0.04306   -0.021103  -0.0061951,-0.044678   -0.021194      9.7813,0  0  0,24.7858      120.9973      142.0066,0.06695557    0.00793457      142.0066,-38,6.5,
21:51:09:40,374,25.6719,0.99989  1.5367e-05  0.00013193   -0.015002,0.0015339    0.015143     -1.7191,-0.00010377   0.0032825  -0.0094833,0.0064163   -0.036774   0.0015612,0.0057068   -0.036072      9.7891,0  0  0,24.7858      120.9973      141.6729,0.06903076    0.01529694      141.6729,-38,6.75,
21:51:09:74,375,25.6719,0.99988  3.9591e-05  0.00017908    -0.01527,0.0042229    0.020588     -1.7498,-0.0023479     0.01532   -0.018677,0.0082321    0.028748    0.021896,0.0034199    0.029709      9.8125,0  0  0,24.7858      120.9973      141.5017,0.07330322    0.01704407      141.5017,-39,6.75,
21:51:10:08,376,25.6719,0.99988  6.0983e-05  0.00015091   -0.015353,0.0067218    0.017398     -1.7594,-0.002718       0.013   -0.017807,0.017609   0.0016556 -0.00030994,0.014397   0.0033035      9.7891,0  0  0,24.7858      120.9973       141.425,0.07312012    0.01213074       141.425,-38,6.5,
21:51:10:42,377,25.6719,0.99988  7.3487e-05  7.4963e-05   -0.015407,0.0082876   0.0087188     -1.7655,-0.0024052    0.012688   -0.014374,-0.00099277   0.0070572    0.012329,-0.0028458   0.0084305      9.8047,0  0  0,24.7858      120.9973      141.3509,0.07330322    0.01174927      141.3509,-38,7,
21:51:10:76,378,25.6719,0.99988  0.00011735  9.5067e-05   -0.015499,0.013277    0.011101     -1.7761,-0.0028057    0.011421   -0.012268,-0.004837   -0.026978    -0.01825,-0.005909   -0.024902      9.7734,0  0  0,24.7858      120.9973      141.2596,0.07281494   0.008369446      141.2596,-38,6.5,
21:51:11:10,379,25.6719,0.99988  0.00010613    8.57e-05   -0.015583,0.012007    0.010009     -1.7858,-0.0023956    0.014122   -0.017197,0.024445   0.0044708   0.0068474,0.022308   0.0072784      9.7969,0  0  0,24.7858      120.9973      141.1225,0.07385254   0.008750916      141.1225,-38,6.75,
21:51:11:44,380,25.6563,0.99988  0.00010919  9.0205e-05   -0.015599,0.01235    0.010531     -1.7876,-0.0020828    0.010582   -0.012032,0.010696  -0.0044441  -0.0081329,0.0090942  -0.0019779      9.7813,0  0  0,24.7858      120.9973      141.0674,0.07543945   0.008224487      141.0674,-38,6.75,
21:51:11:78,381,25.6563,0.99988  0.00012711  6.6008e-05   -0.015577,0.014446     0.00779     -1.7851,-0.0025616    0.010223   -0.012718,-0.00096416   0.0016308   0.0088882,-0.0022488   0.0040474      9.7969,0  0  0,24.7858      120.9973      141.1041,0.07519531   0.004276276      141.1041,-39,6.75,
21:51:12:12,382,25.6563,0.99988  0.00013313   5.758e-05    -0.01562,0.015151   0.0068356       -1.79,-0.0014048   0.0088806   -0.010674,-0.0081711    -0.00457 -0.00084019,-0.0089645  -0.0021439      9.7891,0  0  0,24.7858      120.9973      141.1587,0.07452393   0.003778458      141.1587,-38,6.25,
21:51:12:46,383,25.6563,0.99988  0.00014575  6.7391e-05   -0.015671,0.016579   0.0079832     -1.7958,-0.0012531    0.010361    -0.01223,0.0034313   0.0031471   0.0078583,0.0020523   0.0061913      9.7969,0  0  0,24.7858      120.9973      141.3141,0.07507324    0.00280571      141.3141,-38,6.5,
21:51:12:80,384,25.6563,0.99988  0.00018362  2.7746e-05   -0.015662,0.020989   0.0035086     -1.7948,-0.0029907    0.013687   -0.017975,0.00068855   0.0037594   0.0028992,-0.00026989   0.0073013      9.7891,0  0  0,24.7858      120.9973      141.4467,0.07208252  -0.001357079      141.4467,-38,6.75,
21:51:13:14,385,25.6719,0.99988   0.0001938  3.9294e-05   -0.015732,0.022134   0.0048515     -1.8028,-0.0029049    0.010513   -0.012947,-0.0036812  -0.0050087   0.0062675,-0.0042801  -0.0013952      9.7969,0  0  0,24.7858      120.9973       141.578,0.07000732  -0.001558304       141.578,-38,7.25,
21:51:13:48,386,25.6719,0.99988  0.00018035  6.2162e-05   -0.015755,0.020552   0.0074479     -1.8054,-0.0028954    0.012215   -0.017883,0.0023746    0.036194    0.011154,-0.00013781    0.039703      9.7969,0  0  0,24.7858      120.9973      141.6679,0.06799316  -0.003217697      141.6679,-39,6.75,
21:51:13:82,387,25.6719,0.99987  0.00021506  6.1944e-05   -0.016231,0.024526   0.0074974     -1.8601,-0.0023518    0.016464   -0.020386,0.0024281   -0.059052   -0.059814,0.0025673   -0.054779      9.7266,0  0  0,24.7858      120.9973      141.7483,0.06628418   0.007320404      141.7483,-38,6.5,
21:51:14:16,388,25.6406,0.99987  0.00019632   0.0002727   -0.016099,0.02199    0.031607     -1.8449,-0.005558    0.018616   -0.013107,0.023682   0.0062714    -0.10577,0.01741    0.010429      9.6797,0  0  0,24.7858      120.9973      141.6418,0.06835938  -0.003679276      141.6418,-38,6.5,
21:51:14:50,389,25.6406,0.99987  0.00018309  4.4897e-05   -0.016023,0.020896   0.0054803     -1.8362,-0.0039291    0.010399    -0.01548,-0.050934    0.019257   -0.041809,-0.052368    0.021011        9.75,0  0  0,24.7858      120.9973      141.5637,0.07092285    0.00541687      141.5637,-39,6.75,
21:51:14:83,390,25.6406,0.99987  0.00015512 -1.4989e-05   -0.015887,0.017801  -0.0014349     -1.8206,-0.0033226   0.0028839   -0.012886,0.02861   -0.027954   -0.035126,0.030533   -0.024094        9.75,0  0  0,24.7858      120.9973      141.5651,0.09204102    0.01168823      141.5651,-38,6.75,
21:51:15:17,391,25.6094,0.99988  0.00014722  4.7928e-05   -0.015783,0.016781   0.0057577     -1.8087,-0.0022583   0.0079193   -0.011848,-0.005455   -0.012825  0.00033665,-0.0057068   -0.010124      9.7891,0  0  0,24.7858      120.9973      141.5422,0.09100342    0.01008606      141.5422,-38,6.5,
21:51:15:51,392,25.6094,0.99988  0.00015935 -4.1793e-07   -0.015693,0.018259  0.00023868     -1.7984,-0.0046539    0.014816   -0.016739,0.0045967    0.016281    -0.01445,0.0036926    0.019302      9.7734,0  0  0,24.7858      120.9973      141.6091,0.08966064     0.0118103      141.6091,-38,6.5,
21:51:15:85,393,25.6094,0.99988  0.00017579 -4.0876e-05   -0.015649,0.020215  -0.0043682     -1.7934,-2.0683e-05   0.0085068   -0.010201,0.036499  -0.0028667   -0.011383,0.037598   0.0019484      9.7813,0  0  0,24.7858      120.9973      141.6511,0.09112549    0.01145172      141.6511,-38,6.25,
21:51:16:19,394,25.5938,0.99988   0.0001795 -6.7446e-05   -0.015739,0.020688   -0.007404     -1.8036,-0.0026207    0.010796    -0.01088,0.0063057    0.048737    0.027191,0.0060806    0.052429      9.8125,0  0  0,24.7858      120.9973      141.6712,0.08691406   0.008483887      141.6712,-38,7,
21:51:16:54,395,25.5938,0.99988  0.00019464 -3.6659e-05   -0.015695,0.022368  -0.0038502     -1.7986,-0.0034981    0.015594   -0.018021,-0.018478    0.010239    -0.01799,-0.018555    0.013351      9.7734,0  0  0,24.7858      120.9973      141.6794,0.0848999   0.008712769      141.6794,-39,7,
21:51:16:88,396,25.5938,0.99988  0.00020243 -9.9604e-05   -0.015661,0.023373   -0.011049     -1.7947,-0.0043678    0.016098   -0.016815,-0.062347   -0.012169    -0.02533,-0.060516    -0.01033      9.7656,0  0  0,24.7858      120.9973      141.6488,0.08563232   0.008148193      141.6488,-38,6.75,
21:51:17:22,397,25.5625,0.99988  0.00023021 -9.4417e-05   -0.015643,0.026546   -0.010405     -1.7926,-0.002367    0.015152   -0.015541,0.037384   -0.024857    -0.01268,0.03952    -0.01915      9.7734,0  0  0,24.7858      120.9973      141.5704,0.08764648   0.008911133      141.5704,-38,6.5,
21:51:17:56,398,25.5625,0.99988  0.00023678 -0.00016125   -0.015633,0.027418   -0.018051     -1.7914,-0.0018711   0.0060768   -0.011345,0.019684   0.0021553  -0.0083694,0.023193   0.0074921      9.7813,0  0  0,24.7858      120.9973      141.5646,0.08361816   0.006855011      141.5646,-38,6.25,
21:51:17:90,399,25.5625,0.99988  0.00027855 -0.00015287   -0.015661,0.03219   -0.017015     -1.7947,-0.0027084    0.013977   -0.016586,0.009285   -0.006794  0.00096703,0.012131  -0.0010376      9.7891,0  0  0,24.7858      120.9973      141.5232,0.0847168   0.006614685      141.5232,-38,6.5,
21:51:18:24,400,25.5469,0.99988  0.00030696 -0.00023761   -0.015635,0.035596   -0.026675     -1.7917,-0.0025177    0.012108   -0.014671,0.0048103  -0.0047874  -0.0033607,0.0094299   0.0014248      9.7891,0  0  0,24.7858      120.9973      141.5035,0.08551025   0.005214691      141.5035,-38,6.25,
21:51:18:58,401,25.5469,0.99988  0.00031203 -0.00028694   -0.015643,0.036266   -0.032317     -1.7926,-0.0020657   0.0048218   -0.010307,0.021484   -0.017365    0.027878,0.028183   -0.010445      9.8203,0  0  0,24.7858      120.9973      141.5271,0.08026123   0.002521515      141.5271,-38,6.5,
21:51:18:92,402,25.5469,0.99988  0.00032464 -0.00020394   -0.015704,0.037563   -0.022783     -1.7997,-0.0015802    0.011833   -0.014122,0.010521   -0.016022   0.0053368,0.014862  -0.0091858      9.7969,0  0  0,24.7858      120.9973      141.5393,0.08068848   0.002820969      141.5393,-38,6.5,
21:51:19:26,403,25.5625,0.99988  0.00032498 -0.00029258   -0.015572,0.037758   -0.032943     -1.7845,-0.002224    0.010109   -0.015083,-0.0095367    0.023087   0.0026264,-0.0045052    0.029251      9.7891,0  0  0,24.7858      120.9973      141.5995,0.07843018   0.002326965      141.5995,-38,7,
21:51:19:60,404,25.5625,0.99988  0.00036871 -0.00031197   -0.015418,0.042797   -0.035093     -1.7668,-0.0039043    0.010017   -0.012733,-0.010391   0.0069695   0.0071106,-0.0044785    0.013802      9.7969,0  0  0,24.7858      120.9973      141.6103,0.0791626  0.0005545616      141.6103,-38,6.5,
21:51:19:94,405,25.5625,0.99988  0.00036287 -0.00026948   -0.015423,0.042053   -0.030235     -1.7675,-0.0026207    0.010788   -0.014702,-0.0052185   -0.032257   0.0013809,0.00099182   -0.025253      9.7891,0  0  0,24.7858      120.9973      141.5381,0.07678223  -0.001747131      141.5381,-37,6.75,
21:51:20:28,406,25.5469,0.99988  0.00035272 -0.00032258   -0.015376,0.040982   -0.036339     -1.7621,-0.0026608     0.01265   -0.016541,0.015526   0.0019741  0.00083542,0.02153   0.0094147      9.7891,0  0  0,24.7858      120.9973      141.4813,0.07189941  -0.001022339      141.4813,-37,6.75,
21:51:20:62,407,25.5469,0.99988  0.00034334 -0.00034503   -0.015275,0.039943   -0.038931     -1.7505,-0.0030613    0.012955   -0.015289,0.0051003   -0.008606  -0.0012293,0.011848  -0.0016937      9.7891,0  0  0,24.7858      120.9973      141.4742,0.06982422  -0.001472473      141.4742,-38,7,
21:51:20:96,408,25.5469,0.99988  0.00037664 -0.00040121   -0.015254,0.043856   -0.045311     -1.7481,-0.0023022    0.011253   -0.012985,0.0071487   -0.013847   0.0017214,0.015312  -0.0061302      9.7891,0  0  0,24.7858      120.9973        141.48,0.06738281  -0.003543854        141.48,-38,6.75,
21:51:21:30,409,25.5469,0.99988  0.00037702 -0.00039117   -0.015272,0.043883    -0.04416     -1.7501,-0.0018129    0.011024   -0.013687,-0.0075684  -0.0074997   0.0036411,0.00023603 -0.00017786      9.7891,0  0  0,24.7858      120.9973      141.5099,0.06072998  -0.005390167      141.5099,-38,6.5,
21:51:21:64,410,25.5469,0.99988  0.00037318 -0.00034827   -0.015357,0.043371   -0.039248     -1.7599,-0.0029011    0.014381   -0.017273,-0.019531   0.0018873   0.0014324,-0.013176   0.0086365      9.7891,0  0  0,24.7858      120.9973      141.5431,0.05709839  -0.004455566      141.5431,-38,7.25,
21:51:21:98,411,25.5469,0.99988   0.0004156 -0.00043229   -0.015228,0.048373   -0.048806     -1.7451,-0.0010929   0.0083694   -0.010605,-0.0016422  -0.0067177   0.0016479,0.0071869   0.0016184      9.7891,0  0  0,24.7858      120.9973      141.5213,0.05447388   -0.00604248      141.5213,-38,6.5,
21:51:22:32,412,25.5469,0.99988  0.00043699 -0.00042461   -0.015238,0.050811   -0.047888     -1.7462,-0.0013714   0.0095901  -0.0099182,-0.0077705  -0.0014973  -0.0028439,0.00062275   0.0070381      9.7891,0  0  0,24.7858      120.9973      141.5102,0.04888916  -0.009468079      141.5102,-37,6.75,
21:51:22:66,413,25.5469,0.99988  0.00043076 -0.00042307   -0.015278,0.050097   -0.047721     -1.7508,-0.0024071    0.013458   -0.014748,0.0026608  -0.0068436  -0.0002327,0.010803     0.00179      9.7891,0  0  0,24.7858      120.9973      141.4589,0.04653931  -0.009872437      141.4589,-38,7,
21:51:23:00,414,25.5469,0.99989  0.00045163  -0.0004621   -0.015141,0.052549   -0.052164     -1.7352,-0.0025139   0.0092316   -0.011261,-0.0033455  -0.0087433    0.014305,0.0060463  0.00012708      9.8047,0  0  0,24.7858      120.9973      141.3801,0.04293823   -0.01235962      141.3801,-37,6,
21:51:23:33,415,25.5469,0.99989  0.00048097 -0.00049588   -0.014952,0.055958   -0.055993     -1.7135,-0.0020466   0.0091248   -0.010422,-0.0047951  -0.0040588   0.0036163,0.0051079   0.0053864      9.7891,0  0  0,24.7858      120.9973      141.4122,0.03805542   -0.01529694      141.4122,-37,6.5,
21:51:23:67,416,25.5469,0.99989  0.00051266 -0.00053443   -0.015014,0.059659   -0.060353     -1.7206,-0.0022926    0.009819   -0.012306,-0.018982  -0.0095291   0.0044594,-0.0082321  0.00010258      9.7969,0  0  0,24.7858      120.9973      141.4569,0.03274536    -0.0191803      141.4569,-38,6.75,
21:51:24:01,417,25.5469,0.99989   0.0005119 -0.00059639   -0.015076,0.059683   -0.067449     -1.7277,-0.0025024     0.01326   -0.016815,-0.018188  -0.0011921   0.0089645,-0.0068092   0.0084457      9.7969,0  0  0,24.7858      120.9973      141.5551,0.02467346   -0.02073669      141.5551,-38,6.5,
21:51:24:35,418,25.5469,0.99989   0.0005263 -0.00062376   -0.015087,0.061381    -0.07056      -1.729,-0.0017281    0.011154   -0.014305,-0.0099335   -0.013908   0.0034409,0.0025616  -0.0036583      9.7891,0  0  0,24.7858      120.9973      141.6282,0.01919556    -0.0227356      141.6282,-38,6.75,
21:51:24:69,419,25.5469,0.99989  0.00054662 -0.00072978   -0.015046,0.06389   -0.082674     -1.7243,-0.002203    0.008667   -0.012421,0.036957   0.0053978    0.001174,0.051178    0.017441      9.7891,0  0  0,24.7858      120.9973      141.7394,0.01573181   -0.02371216      141.7394,-39,7,
21:51:25:04,420,25.5156,0.99989  0.00055326 -0.00066389   -0.015037,0.064536   -0.075114     -1.7232,-0.0024853     0.01329   -0.013474,-0.0085831   -0.031952    0.026443,0.0050545   -0.021149      9.8125,0  0  0,24.7858      120.9973      141.7662,0.01044464   -0.02418518      141.7662,-38,6.5,
21:51:25:38,421,25.5156,0.99988  0.00057412 -0.00070483   -0.015173,0.067008    -0.07976     -1.7388,-0.0022202    0.011322   -0.016907,0.023895   0.0057564   0.0061684,0.037354    0.017944      9.7969,0  0  0,24.7858      120.9973      141.7673,0.008583069   -0.02481079      141.7673,-38,6.5,
21:51:25:72,422,25.5156,0.99988  0.00058064 -0.00069792   -0.015198,0.067745   -0.078955     -1.7416,-0.0037537    0.012604   -0.014755,0.010368   -0.024628   0.0033092,0.024475   -0.012856      9.7891,0  0  0,24.7858      120.9973      141.7793,0.007221222   -0.02629089      141.7793,-39,6.5,
21:51:26:06,423,25.4844,0.99988   0.0006228 -0.00070253   -0.015195,0.072582    -0.07941     -1.7414,-0.0015297    0.011948   -0.011696,-0.01413    0.010429   0.0047455,-0.0009346    0.022476      9.7969,0  0  0,24.7858      120.9973      141.8291,0.006038666   -0.02919006      141.8291,-38,6.75,
21:51:26:40,424,25.4844,0.99988  0.00061097 -0.00077881   -0.015284,0.071368   -0.088165     -1.7515,-0.0018148   0.0039558   -0.015442,-0.016861  -0.0047226    0.042877,-0.00085688   0.0070572      9.8281,0  0  0,24.7858      120.9973      141.8675,0.006275177   -0.02919006      141.8675,-38,6.5,
21:51:26:74,425,25.4844,0.99988  0.00062551  -0.0008126   -0.015181,0.073084   -0.092019     -1.7397,-0.0021305   0.0062675  -0.0083847,-0.0032692   -0.001195   0.0082779,0.012993    0.011223      9.7969,0  0  0,24.7858      120.9973      141.8543,0.007118225   -0.03405762      141.8543,-38,6.75,
21:51:27:08,426,25.4688,0.99988  0.00063063 -0.00084046    -0.01515,0.073716   -0.095203     -1.7362,-0.0017958   0.0097275   -0.010399,-0.0045357   -0.030777   0.0055504,0.012825    -0.01825      9.7969,0  0  0,24.7858      120.9973      141.8973,0.00643158   -0.03598022      141.8973,-38,6.75,
21:51:27:42,427,25.4688,0.99989   0.0006613 -0.00084245   -0.015098,0.077229   -0.095383     -1.7303,-0.002039    0.010254   -0.014854,-0.012428   0.0033646   0.0096359,0.003891     0.01622      9.7969,0  0  0,24.7858      120.9973      141.9771,0.004863739   -0.04135132      141.9771,-38,6.75,
21:51:27:76,428,25.4688,0.99988  0.00067888 -0.00084267   -0.015131,0.079246   -0.095375      -1.734,-0.0028324    0.011192   -0.015381,-0.017639   -0.013168   0.0055618,-0.00092363 -0.00020039      9.7969,0  0  0,24.7858      120.9973      142.0774,0.0008511543   -0.04486084      142.0774,-38,6.5,
21:51:28:10,429,25.5,0.99989  0.00068129 -0.00091115   -0.015076,0.079636    -0.10322     -1.7277,-0.0015688    0.010918   -0.011414,-0.015488    -0.01741  -0.0039673,0.0027103  -0.0041924      9.7813,0  0  0,24.7858      120.9973        142.17,-0.002483368   -0.04415894        142.17,-38,6.75,
21:51:28:44,430,25.5,0.99989  0.00069357 -0.00093494    -0.01507,0.081082    -0.10593     -1.7271,-0.0021152     0.01062   -0.013206,-0.027069  -0.0094376    0.011002,-0.0085907   0.0036354      9.7969,0  0  0,24.7858      120.9973      142.2935,-0.007400513   -0.04699707      142.2935,-38,7,
21:51:28:78,431,25.5,0.99989  0.00071892 -0.00093397   -0.015066,0.083985    -0.10577     -1.7265,-0.0024815    0.013969   -0.016174,-0.012642   -0.011002   0.0039177,0.0055122   0.0029564      9.7891,0  0  0,24.7858      120.9973      142.4257,-0.01396942   -0.05075073      142.4257,-38,6.25,
21:51:29:12,432,25.5313,0.99989  0.00074442 -0.00099021   -0.015034,0.087001    -0.11217      -1.723,-0.0025692    0.012581   -0.012787,-0.030228  -0.0044365    0.012558,-0.011009   0.0095139      9.8047,0  0  0,24.7858      120.9973      142.5988,-0.02084351   -0.05477905      142.5988,-38,6.75,
21:51:29:46,433,25.5313,0.99989  0.00074249 -0.00097378    -0.01501,0.086749     -0.1103     -1.7202,-0.00173    0.012375   -0.014305,-0.028229    -0.00914    0.011368,-0.0091858   0.0049095      9.7969,0  0  0,24.7858      120.9973      142.7092,-0.0269928   -0.05355835      142.7092,-38,6.75,
21:51:29:80,434,25.5313,0.99989   0.0007551  -0.0010381   -0.014914,0.088293    -0.11765     -1.7092,-0.0020676    0.010231   -0.014259,-0.0028057   -0.022583   0.0089035,0.018097   -0.007534      9.7969,0  0  0,24.7858      120.9973      142.8363,-0.03445435   -0.05484009      142.8363,-38,7,
21:51:30:14,435,25.5469,0.99989   0.0007673  -0.0010469   -0.014886,0.089703    -0.11864     -1.7059,-0.0025234    0.014725    -0.01564,-0.029999  -0.0093307   0.0073586,-0.0097656   0.0050964      9.7969,0  0  0,24.7858      120.9973      142.9422,-0.04055786    -0.0569458      142.9422,-38,6.5,
21:51:30:48,436,25.5469,0.99989  0.00076653  -0.0010209   -0.014962,0.089578    -0.11566     -1.7147,-0.003109    0.013123   -0.015602,-0.02507   -0.016785 -0.00099182,-0.0049744  -0.0023022      9.7891,0  0  0,24.7858      120.9973      143.0068,-0.04467773   -0.05703735      143.0068,-38,6.25,
21:51:30:82,437,25.5469,0.99989  0.00078432   -0.001029   -0.014963,0.091631    -0.11656     -1.7148,-0.0013762    0.010536   -0.012413,-0.024628  -0.0094681    0.004879,-0.0043335   0.0055542      9.7969,0  0  0,24.7858      120.9973      143.0756,-0.0513916   -0.06011963      143.0756,-38,6.5,
21:51:31:16,438,25.5469,0.99989  0.00078682   -0.001059   -0.014988,0.091972    -0.11999     -1.7177,-0.0025558    0.013252    -0.01683,-0.021667     -0.0168   0.0018787,-0.00084925  -0.0017576      9.7891,0  0  0,24.7858      120.9973      143.1188,-0.05932617    -0.0645752      143.1188,-38,6.5,
21:51:31:50,439,25.5469,0.99989  0.00079619  -0.0011012   -0.014929,0.093111    -0.12481      -1.711,-0.0023613    0.011925   -0.014854,-0.032288   -0.015381   0.0049095,-0.010551  -0.0004282      9.7969,0  0  0,24.7858      120.9973      143.1545,-0.06866455   -0.06787109      143.1545,-38,7,
21:51:31:83,440,25.5469,0.99989  0.00080853  -0.0011165   -0.014931,0.094551    -0.12654     -1.7112,-0.0020809   0.0093613   -0.010948,-0.017853    -0.02005  -0.0040321,0.0045547  -0.0044098      9.7813,0  0  0,24.7858      120.9973      143.1391,-0.07092285    -0.0668335      143.1391,-38,6.75,
21:51:32:17,441,25.5781,0.99989  0.00080694  -0.0010805   -0.015007,0.094316    -0.12242     -1.7198,-0.002533     0.01152   -0.013947,-0.024734  -0.0056496     0.01104,-0.0036449   0.0097198      9.7969,0  0  0,24.7858      120.9973      143.1381,-0.078125   -0.07019043      143.1381,-38,7,
21:51:32:51,442,25.5781,0.99989  0.00082389  -0.0010926   -0.015005,0.096279    -0.12377     -1.7196,-0.0017767    0.010902   -0.013023,-0.029922   -0.016037   0.0042953,-0.0082397 -0.00042081      9.7969,0  0  0,24.7858      120.9973      143.1096,-0.08154297   -0.07147217      143.1096,-38,6.75,
21:51:32:85,443,25.5781,0.99989  0.00084176  -0.0011447   -0.014921,0.098405    -0.12972       -1.71,-0.0019445    0.010651   -0.012901,-0.028946   -0.014969   0.0039215,-0.0062599   0.0010242      9.7891,0  0  0,24.7858      120.9973      143.0987,-0.08483887   -0.07220459      143.0987,-38,7,
21:51:33:19,444,25.5469,0.99989   0.0008313  -0.0011119   -0.015076,0.09717    -0.12597     -1.7278,-0.002346     0.01104   -0.012817,-0.036255   -0.015457    0.007637,-0.014206  6.4909e-05      9.7969,0  0  0,24.7858      120.9973      143.0633,-0.09106445   -0.07556152      143.0633,-37,7,
21:51:33:54,445,25.5469,0.99989   0.0008113  -0.0010607   -0.015025,0.094785    -0.12014     -1.7219,-0.0021324    0.012726    -0.01561,-0.021713     -0.0112     0.00457,-0.00097227   0.0043678      9.7969,0  0  0,24.7858      120.9973      143.0237,-0.09130859   -0.07513428      143.0237,-38,6.5,
21:51:33:88,446,25.5625,0.99989  0.00083509   -0.001097   -0.014949,0.097563    -0.12426     -1.7133,-0.0031681    0.013084   -0.016403,-0.022995  -0.0099106  -0.0075645,-0.0016556   0.0059776      9.7813,0  0  0,24.7858      120.9973       142.965,-0.09539795    -0.0760498       142.965,-37,6.5,
21:51:34:22,447,25.5625,0.99989  0.00082497  -0.0010958   -0.014926,0.096399    -0.12414     -1.7106,-0.0026131    0.011658   -0.014061,-0.022354   -0.015335   0.0068893,-0.00069952  0.00045371      9.7969,0  0  0,24.7858      120.9973      142.8961,-0.1013184   -0.07904053      142.8961,-38,6.75,
21:51:34:56,448,25.5625,0.99989  0.00080373  -0.0010852    -0.01505,0.093961    -0.12295     -1.7248,-0.0023975   0.0097122   -0.012993,-0.029709  -0.0038509   0.0082932,-0.0084    0.011314      9.7969,0  0  0,24.7858      120.9973      142.8651,-0.1047974   -0.07818604      142.8651,-39,6.5,
21:51:34:90,449,25.5,0.99989  0.00079776  -0.0010017   -0.015097,0.093139    -0.11339     -1.7302,-0.0035458    0.012375   -0.016922,-0.036865   -0.050049    0.011093,-0.016052   -0.035339      9.7969,0  0  0,24.7858      120.9973      142.8145,-0.1097412   -0.07672119      142.8145,-39,7.25,
21:51:35:24,450,25.5,0.99989  0.00073979  -0.0010915   -0.015061,0.086648    -0.12378      -1.726,-0.0029449    0.012199   -0.016144,-0.038757    0.020096   0.0028114,-0.01828    0.033661      9.7891,0  0  0,24.7858      120.9973      142.7505,-0.1185913   -0.06292725      142.7505,-38,6.75,
21:51:35:58,451,25.5,0.99989  0.00072841  -0.0011394   -0.015003,0.085419     -0.1293     -1.7194,-0.0013294   0.0075302  -0.0097046,0.0058327   -0.031616    0.016586,0.029266   -0.016708      9.8047,0  0  0,24.7858      120.9973      142.7238,-0.1096191    -0.0614624      142.7238,-38,6.5,
21:51:35:92,452,25.4844,0.99989  0.00073714  -0.0010773   -0.015074,0.086321    -0.12216     -1.7275,-0.001792     0.01178   -0.014427,-0.012405  -0.0038013   0.0042076,0.0085449    0.010628      9.7969,0  0  0,24.7858      120.9973      142.7362,-0.1088867   -0.06219482      142.7362,-38,6.75,
21:51:36:26,453,25.4844,0.99989  0.00073909  -0.0010764   -0.015014,0.086536    -0.12206     -1.7206,-0.0023441    0.013023   -0.015358,-0.004528  -0.0080185    0.007988,0.016418   0.0066376      9.7969,0  0  0,24.7858      120.9973      142.7477,-0.1077271   -0.05984497      142.7477,-38,6.75,
21:51:36:60,454,25.4844,0.99989  0.00076259  -0.0011042   -0.014888,0.089261    -0.12522     -1.7062,-0.001543    0.010147   -0.011612,-0.0015011  -0.0097885   0.0099869,0.020309   0.0055084      9.7969,0  0  0,24.7858      120.9973      142.7752,-0.107605   -0.06121826      142.7752,-38,6.75,
21:51:36:94,455,25.4844,0.99989  0.00078337  -0.0010568   -0.014857,0.091557    -0.11976     -1.7027,-0.001647   0.0095291   -0.011765,-0.0097427   -0.012039 -0.00020123,0.011253    0.003376      9.7891,0  0  0,24.7858      120.9973      142.7727,-0.1075439   -0.06347656      142.7727,-37,7,
21:51:37:28,456,25.4844,0.99989  0.00076007  -0.0010239    -0.01479,0.088823    -0.11603      -1.695,-0.0022354    0.012909    -0.01619,-0.01944   -0.018127   0.0002861,0.00075865  -0.0035191      9.7891,0  0  0,24.7858      120.9973       142.812,-0.100769   -0.06079102       142.812,-38,6.5,
21:51:37:62,457,25.4844,0.99989  0.00076041  -0.0010148   -0.014732,0.08884    -0.11499     -1.6883,-0.0021477    0.010834   -0.013474,-0.019333  -0.0067062    0.015175,0.00059032   0.0079422      9.8047,0  0  0,24.7858      120.9973       142.864,-0.09747314   -0.06030273       142.864,-38,7,
21:51:37:96,458,25.5156,0.99989  0.00074556  -0.0010141   -0.014666,0.08713    -0.11494     -1.6808,-0.0017643    0.010223   -0.013054,-0.024384   -0.012985   0.0049171,-0.0042419   0.0012465      9.7969,0  0  0,24.7858      120.9973       142.903,-0.1002808   -0.06262207       142.903,-38,6.5,
21:51:38:30,459,25.5156,0.99989  0.00072863  -0.0010169   -0.014618,0.085189     -0.1153     -1.6753,-0.00243    0.011543   -0.013771,-0.028412  -0.0041161   0.0020561,-0.0085983   0.0095978      9.7891,0  0  0,24.7858      120.9973      142.9388,-0.1014404   -0.06323242      142.9388,-38,6.75,
21:51:38:64,460,25.5156,0.99989   0.0007286  -0.0010121   -0.014649,0.085182    -0.11474     -1.6788,-0.0025387    0.013313   -0.016022,-0.017853   -0.016266   0.0069656,0.0020466  -0.0022392      9.7969,0  0  0,24.7858      120.9973      142.9803,-0.1043701   -0.06469727      142.9803,-37,6.5,
21:51:38:98,461,25.5313,0.99989  0.00070868 -0.00098995   -0.014569,0.082853    -0.11224     -1.6696,-0.0030689    0.013336   -0.017822,-0.020264   -0.017319    0.011314,-0.00075722  -0.0038166      9.7969,0  0  0,24.7858      120.9973      143.0459,-0.1027222   -0.06427002      143.0459,-38,7,
21:51:39:32,462,25.5313,0.99989   0.0006748 -0.00092484   -0.014476,0.078853    -0.10485     -1.6589,-0.0024872    0.010185   -0.010735,-0.023529  -0.0050697    0.005127,-0.005352   0.0077057      9.7969,0  0  0,24.7858      120.9973      143.1286,-0.100708   -0.06506348      143.1286,-38,7,
21:51:39:66,463,25.5313,0.99989  0.00066075 -0.00091403   -0.014498,0.077227    -0.10363     -1.6615,-0.0027714    0.012978   -0.016159,-0.013306   -0.012627  0.00067139,0.0046043  0.00013864      9.7891,0  0  0,24.7858      120.9973      143.1625,-0.1039429    -0.0670166      143.1625,-38,7,
21:51:40:00,464,25.5469,0.9999  0.00064432 -0.00089352    -0.01443,0.075304    -0.10131     -1.6536,-0.0025768    0.012016   -0.015915,-0.015457  -0.0078964   0.0021858,0.0020161   0.0044975      9.7891,0  0  0,24.7858      120.9973       143.171,-0.1063843   -0.07025146       143.171,-38,6.75,
21:51:40:33,465,25.5469,0.9999  0.00061853 -0.00087008   -0.014297,0.072296    -0.09868     -1.6385,-0.0011835   0.0095215   -0.010857,-0.021378   -0.006691   0.0053368,-0.0041428   0.0051651      9.7969,0  0  0,24.7858      120.9973      143.1973,-0.1027832   -0.06878662      143.1973,-38,7,
21:51:40:67,466,25.5469,0.9999  0.00061267 -0.00083797   -0.014251,0.071568   -0.095014     -1.6331,-0.0015945    0.011047    -0.01284,-0.0094147   -0.011421   0.0036278,0.0071716  0.00060987      9.7891,0  0  0,24.7858      120.9973      143.1883,-0.1049194   -0.07092285      143.1883,-38,6.5,
21:51:41:01,467,25.5313,0.9999  0.00059049 -0.00078241   -0.014256,0.068937   -0.088684     -1.6338,-0.0020771    0.011681   -0.014923,-0.012924  -0.0098953  -0.0016623,0.0024643   0.0015345      9.7891,0  0  0,24.7858      120.9973      143.1406,-0.1051636   -0.06872559      143.1406,-38,6.5,
21:51:41:35,468,25.5313,0.9999  0.00056027  -0.0007928   -0.014166,0.065483   -0.089929     -1.6235,-0.0012503    0.010277   -0.010666,-0.017441   0.0045395  -0.0013504,-0.0021057    0.015327      9.7891,0  0  0,24.7858      120.9973      143.0842,-0.09985352   -0.06567383      143.0842,-38,6.25,
21:51:41:69,469,25.5313,0.9999  0.00053341 -0.00073579   -0.014161,0.062312   -0.083441     -1.6228,-0.0022049    0.011597   -0.013153,-0.0010033  -0.0028992     0.01239,0.013321   0.0077362      9.8047,0  0  0,24.7858      120.9973      143.0162,-0.1015625   -0.06445313      143.0162,-38,6.75,
21:51:42:04,470,25.5313,0.9999  0.00052116 -0.00083433   -0.013948,0.061049   -0.094764     -1.5984,-0.0028019    0.010391   -0.014656,-0.0079498  -0.0048485   0.0037727,0.0084686   0.0053101      9.7891,0  0  0,24.7858      120.9973      142.9868,-0.1011353   -0.06228638      142.9868,-38,7,
21:51:42:38,471,25.5313,0.9999  0.00052404 -0.00084491   -0.013868,0.061387   -0.095978     -1.5893,-0.0019407    0.011017   -0.013931,-0.018326  -0.0067101  -0.0041122,-0.0017262   0.0032978      9.7813,0  0  0,24.7858      120.9973      142.9202,-0.1021118   -0.06219482      142.9202,-38,7,
21:51:42:72,472,25.5313,0.9999  0.00051283 -0.00082852   -0.013826,0.060074   -0.094119     -1.5845,-0.0021191    0.010277   -0.011711,-0.013206   -0.010109  -0.0025787,0.0032425 -0.00019395      9.7891,0  0  0,24.7858      120.9973      142.8905,-0.1046143   -0.06243896      142.8905,-38,6.5,
21:51:43:06,473,25.5313,0.9999  0.00050086 -0.00073807   -0.013792,0.058555   -0.083777     -1.5806,-0.0020962    0.011848   -0.015167,-0.018799  -0.0071602  -0.0043602,-0.0043449   0.0023365      9.7813,0  0  0,24.7858      120.9973      142.8469,-0.1009521   -0.05984497      142.8469,-37,7,
21:51:43:40,474,25.5313,0.99991  0.00047318 -0.00075057   -0.013688,0.055395   -0.085259     -1.5686,-0.0029945    0.011902   -0.017715,-0.0073013   -0.008255    0.011124,0.0074425  0.00094938      9.7969,0  0  0,24.7858      120.9973      142.7353,-0.1010742   -0.05892944      142.7353,-38,6.75,
21:51:43:74,475,25.5313,0.99991   0.0004568 -0.00071506   -0.013629,0.053458   -0.081219     -1.5618,-0.0027027     0.01149   -0.015335,-0.013451  -0.0095901   0.0085297,0.00067616 -0.00086021      9.7969,0  0  0,24.7858      120.9973      142.6763,-0.1027222   -0.05911255      142.6763,-38,6.75,
21:51:44:08,476,25.5156,0.99991  0.00042726 -0.00069294   -0.013659,0.050041   -0.078729     -1.5652,-0.0021133    0.011375   -0.011017,-0.023178   0.0023384   0.0081711,-0.0097809    0.010277      9.7969,0  0  0,24.7858      120.9973      142.6968,-0.1010132   -0.05249023      142.6968,-39,6.5,
21:51:44:42,477,25.5156,0.99991  0.00041543 -0.00062449   -0.013607,0.048574   -0.070907     -1.5593,-0.0032272     0.01403   -0.017868,-0.012566   -0.006382   0.0029449,-0.00054693   0.0014811      9.7891,0  0  0,24.7858      120.9973      142.7629,-0.09161377   -0.05032349      142.7629,-38,6.25,
21:51:44:76,478,25.4844,0.99991  0.00038479 -0.00067543   -0.013517,0.045136   -0.076795      -1.549,-0.0024185    0.010071   -0.013374,-2.1517e-05   0.0043945   0.0057449,0.0131    0.012093      9.7969,0  0  0,24.7858      120.9973      142.8103,-0.08984375   -0.04403687      142.8103,-38,7,
21:51:45:10,479,25.4844,0.99991  0.00038375 -0.00068178   -0.013453,0.045022   -0.077528     -1.5416,-0.0018673    0.010757   -0.012962,0.0082092 -0.00089359  -0.0036411,0.021515   0.0070534      9.7891,0  0  0,24.7858      120.9973      142.8958,-0.08843994   -0.04421997      142.8958,-38,6.5,
21:51:45:44,480,25.4844,0.99991  0.00038798 -0.00060905   -0.013482,0.045397   -0.069186      -1.545,-0.0016222    0.012215   -0.014931,0.0036259   0.0042343 -0.00092793,0.015228    0.012146      9.7891,0  0  0,24.7858      120.9973      142.9417,-0.08355713   -0.04507446      142.9417,-38,7.25,
21:51:45:78,481,25.4844,0.99991  0.00032708 -0.00049056   -0.013541,0.038238   -0.055702     -1.5518,-0.0020275    0.010986   -0.013992,-0.0053596   -0.003046   0.0021553,0.0042686   0.0033627      9.7891,0  0  0,24.7858      120.9973      142.9504,-0.07495117   -0.03945923      142.9504,-38,6.75,
21:51:46:12,482,25.4844,0.99991  0.00036523 -0.00054314   -0.013377,0.042682   -0.061674      -1.533,-0.0022736    0.010864   -0.012703,-0.0039291  -0.0027447   0.0034714,0.0067177   0.0044441      9.7891,0  0  0,24.7858      120.9973      142.9655,-0.07330322   -0.04223633      142.9655,-38,6.75,
21:51:46:46,483,25.4844,0.99991  0.00034732 -0.00048824   -0.013381,0.040545   -0.055411     -1.5335,-0.0022049    0.010353   -0.013809,-0.010704  -0.0080261   0.0047302,-0.00093269  -0.0013781      9.7969,0  0  0,24.7858      120.9973      142.9931,-0.07116699   -0.04577637      142.9931,-38,6.5,
21:51:46:80,484,25.4844,0.99991  0.00032355  -0.0004074   -0.013455,0.037701   -0.046181     -1.5419,-0.0027828    0.012184   -0.014938,-0.0096512  0.00071669   0.0020351,-0.0018711   0.0068436      9.7891,0  0  0,24.7858      120.9973      143.0171,-0.06634521   -0.04821777      143.0171,-38,6.75,
21:51:47:14,485,25.4844,0.99991  0.00034246 -0.00045784   -0.013288,0.039937   -0.051938     -1.5227,-0.0024757    0.011528   -0.015518,-0.0052719  -0.0055237   0.0038433,0.0037193   0.0011415      9.7891,0  0  0,24.7858      120.9973      143.0427,-0.0647583   -0.04998779      143.0427,-37,6.5,
21:51:47:48,486,25.4844,0.99991   0.0003233 -0.00042196   -0.013351,0.037689   -0.047854     -1.5299,-0.0019665   0.0091934  -0.0099716,-0.0070992  -0.0076866   0.0095139,0.0014877  -0.0014038      9.7969,0  0  0,24.7858      120.9973      143.0698,-0.06106567   -0.04486084      143.0698,-37,6.5,
21:51:47:82,487,25.5,0.99991  0.00029063 -0.00035729   -0.013409,0.03385   -0.040492     -1.5367,-0.0023594    0.011642   -0.014114,-0.014786  -0.0077057   0.0042801,-0.0076942   -0.002327      9.7969,0  0  0,24.7858      120.9973       143.109,-0.05609131   -0.04116821       143.109,-38,6.75,
21:51:48:16,488,25.5,0.99991  0.00027515  -0.0003592   -0.013388,0.032078   -0.040736     -1.5342,-0.0034351    0.014626   -0.017212,-0.013092   0.0017986   0.0034676,-0.0065079    0.006813      9.7891,0  0  0,24.7858      120.9973      143.1392,-0.05703735   -0.04211426      143.1392,-38,6.5,
21:51:48:50,489,25.5,0.99991   0.0002897 -0.00036122   -0.013333,0.033746   -0.040947     -1.5279,-0.0018873     0.01091   -0.014206,-0.010674   0.0037212 -0.00047016,-0.0037422   0.0092316      9.7891,0  0  0,24.7858      120.9973      143.1711,-0.05862427    -0.0428772      143.1711,-38,6.5,
21:51:48:83,490,25.5156,0.99991   0.0002784 -0.00031155   -0.013272,0.032374   -0.035274     -1.5209,-0.0019836    0.010414    -0.01252,-0.015411  -0.0022869  -0.0060349,-0.0092468   0.0028572      9.7813,0  0  0,24.7858      120.9973      143.2161,-0.05709839   -0.04107666      143.2161,-38,7,
21:51:49:17,491,25.5156,0.99991  0.00027282 -0.00031958   -0.013345,0.031749   -0.036201     -1.5293,-0.0023232    0.011566   -0.014366,-0.021149   -0.010315  -0.0027828,-0.014717  -0.0054588      9.7891,0  0  0,24.7858      120.9973      143.2698,-0.05911255   -0.03964233      143.2698,-38,6.75,
21:51:49:51,492,25.5156,0.99991  0.00025577 -0.00028904   -0.013452,0.029752   -0.032725     -1.5415,-0.0017586   0.0095901   -0.010582,-0.01889  -0.0010757  -0.0025196,-0.013115   0.0035439      9.7891,0  0  0,24.7858      120.9973      143.2934,-0.06005859   -0.03704834      143.2934,-38,6.75,
21:51:49:85,493,25.5469,0.99991  0.00025788 -0.00032847   -0.013328,0.03005   -0.037242     -1.5273,-0.0017405   0.0085831  -0.0095978,-0.014778  -0.0052414   0.0064621,-0.0080109 -0.00044966      9.7969,0  0  0,24.7858      120.9973      143.3228,-0.0637207   -0.03625488      143.3228,-38,6.75,
21:51:50:19,494,25.5469,0.99991  0.00022649 -0.00026475   -0.013285,0.026354   -0.029991     -1.5224,-0.0019741   0.0097198   -0.012276,-0.012596   0.0017767  0.00017548,-0.0073662     0.00597      9.7891,0  0  0,24.7858      120.9973      143.3454,-0.06274414   -0.03460693      143.3454,-38,7,
21:51:50:54,495,25.5469,0.99991  0.00019581 -0.00024566   -0.013214,0.022808   -0.027852     -1.5143,-0.0022888     0.01252   -0.015747,-0.019058  -0.0023117 -9.5367e-05,-0.014366   0.0010748      9.7891,0  0  0,24.7858      120.9973      143.3661,-0.05990601   -0.03222656      143.3661,-39,6.75,
21:51:50:88,496,25.5469,0.99991  0.00018889 -0.00023243   -0.013164,0.021994   -0.026347     -1.5085,-0.0010862   0.0077209  -0.0082855,-0.016571  -0.0033932  -0.0016356,-0.011635   4.077e-05      9.7891,0  0  0,24.7858      120.9973      143.3523,-0.06280518   -0.03210449      143.3523,-38,7,
21:51:51:22,497,25.5469,0.99991  0.00017175   -0.000182   -0.013187,0.019955   -0.020594     -1.5112,-0.0021095    0.012085   -0.014076,-0.0071373   0.0051804   0.0051308,-0.0038414   0.0084076      9.7969,0  0  0,24.7858      120.9973      143.3353,-0.06591797   -0.03240967      143.3353,-38,6.5,
21:51:51:56,498,25.5469,0.99991  0.00019476 -0.00025295   -0.013073,0.022695   -0.028692     -1.4981,-0.0024834    0.011963   -0.014801,-0.011253   0.0014725   0.0025539,-0.0064621   0.0050316      9.7891,0  0  0,24.7858      120.9973       143.291,-0.06622314   -0.03173828       143.291,-38,6.75,
21:51:51:90,499,25.5625,0.99991  0.00018021   -0.000207   -0.013157,0.020961   -0.023446     -1.5078,-0.0026112    0.014084   -0.014023,-0.0023346  -0.0067253    0.015526,0.0015717  -0.0032368      9.8047,0  0  0,24.7858      120.9973      143.2375,-0.06652832   -0.03204346      143.2375,-38,7,
21:51:52:24,500,25.5625,0.99991  0.00018492 -0.00017909   -0.013231,0.02146    -0.02024     -1.5162,-0.0022736    0.013367   -0.015007,-0.0096359  -0.0024071  -0.0095367,-0.0063286  0.00099659      9.7813,0  0  0,24.7858      120.9973      143.1808,-0.06787109   -0.03411865      143.1808,-37,7,
21:51:52:58,501,25.5625,0.99991  0.00013831 -0.00021193   -0.013107,0.016166   -0.024076      -1.502,-0.0020103    0.010902    -0.01178,0.0014658  -0.0081406   0.0029373,0.0058212  -0.0053215      9.7891,0  0  0,24.7858      120.9973      143.1331,-0.06781006   -0.02709961      143.1331,-38,6.5,
21:51:52:92,502,25.5313,0.99992  0.00013707 -0.00017579    -0.01304,0.015968   -0.019937     -1.4944,-0.0023117    0.013695   -0.015572,-0.0095139  -0.0093994   0.0064392,-0.0061035  -0.0069237      9.7969,0  0  0,24.7858      120.9973      143.0235,-0.06707764   -0.02685547      143.0235,-38,6.5,
21:51:53:26,503,25.5313,0.99992  0.00013601 -0.00020619    -0.01287,0.015889   -0.023426     -1.4748,-0.0024853    0.011978   -0.014076,-0.0097733  0.00030398  -0.0070343,-0.0058556    0.002739      9.7813,0  0  0,24.7858      120.9973      142.9386,-0.06610107   -0.02482605      142.9386,-38,6.75,
21:51:53:60,504,25.5313,0.99992   0.0001267 -0.00021115   -0.012852,0.014828   -0.024007     -1.4727,-0.0019035   0.0096054   -0.010551,-0.017319   0.0041199   -0.010124,-0.013168   0.0062332      9.7813,0  0  0,24.7858      120.9973      142.8659,-0.06500244   -0.02770996      142.8659,-38,6.5,
21:51:53:94,505,25.5156,0.99992  0.00012013 -0.00016113   -0.012803,0.014001   -0.018286     -1.4671,-0.0022488   0.0097275   -0.013329,-0.013214   0.0058556   0.0050545,-0.010094   0.0079041      9.7969,0  0  0,24.7858      120.9973      142.8261,-0.06304932   -0.03106689      142.8261,-38,6.5,
